#
# Results on Wednesday March 25 2020 12:48:15 UTC.
# USER AGENT: Mozilla/5.0 (Macintosh; Intel Mac OS X 10_15_3) AppleWebKit/537.36 (KHTML, like Gecko) Chrome/80.0.3987.149 Safari/537.36
# Design number was non-random = 0
#
# Columns below this comment are as follows:
# 1. Time results were received.
# 2. MD5 hash of participant's IP address.
# 3. Controller name.
# 4. Item number.
# 5. Element number.
# 6. Type.
# 7. Group.
# 8. Field name.
# 9. Field value.
1585140495,635dab3af851ec965111bc7fe5fe1ae9,Form,1,0,intro,NULL,consent,yes
1585140495,635dab3af851ec965111bc7fe5fe1ae9,Form,1,0,intro,NULL,understand,yes
# Columns below this comment are as follows:
# 1. Time results were received.
# 2. MD5 hash of participant's IP address.
# 3. Controller name.
# 4. Item number.
# 5. Element number.
# 6. Type.
# 7. Group.
# 8. Question (NULL if none).
# 9. Answer.
# 10. Whether or not answer was correct (NULL if N/A).
# 11. Time taken to answer.
1585140495,635dab3af851ec965111bc7fe5fe1ae9,Question,3,0,practice,NULL,<p>There are three practice items and this is the first one.</p><p><img src="https://github.com/alsugiharto/experiment-design/blob/master/images/example_1.png?raw=true" alt="Italian Trulli"></p><p>Select the video you most likely click by selecting the number bellow.</p><p>The number follows the order of the video.</p>,2,NULL,53393
1585140495,635dab3af851ec965111bc7fe5fe1ae9,Question,4,0,practice,NULL,<p>There are three practice items and this is the first one.</p><p><img src="https://github.com/alsugiharto/experiment-design/blob/master/images/example_2.png?raw=true" alt="Italian Trulli"></p><p>Select the video you most likely click by selecting the number bellow.</p><p>The number follows the order of the video.</p>,3,NULL,27195
1585140495,635dab3af851ec965111bc7fe5fe1ae9,Question,5,0,practice,NULL,<p>There are three practice items and this is the first one.</p><p><img src="https://github.com/alsugiharto/experiment-design/blob/master/images/example_3.png?raw=true" alt="Italian Trulli"></p><p>Select the video you most likely click by selecting the number bellow.</p><p>The number follows the order of the video.</p>,1,NULL,17740
1585140495,635dab3af851ec965111bc7fe5fe1ae9,Question,39,0,control-item2,NULL,<p><img src="https://github.com/alsugiharto/experiment-design/blob/master/images/filler_2.png?raw=true" alt="Italian Trulli"></p><p>Select the video you most likely click by selecting the number bellow.</p><p>The number follows the order of the video.</p>,2,NULL,14306
1585140495,635dab3af851ec965111bc7fe5fe1ae9,Question,41,0,control-item4,NULL,<p><img src="https://github.com/alsugiharto/experiment-design/blob/master/images/filler_4.png?raw=true" alt="Italian Trulli"></p><p>Select the video you most likely click by selecting the number bellow.</p><p>The number follows the order of the video.</p>,3,NULL,34001
1585140495,635dab3af851ec965111bc7fe5fe1ae9,Question,11,0,exp_2_downleft_emoji_without,2,<p><img src="https://github.com/alsugiharto/experiment-design/blob/master/images/exp_2_downleft_emoji_without.png?raw=true" alt="Italian Trulli"></p><p>Select the video you most likely click by selecting the number bellow.</p><p>The number follows the order of the video.</p>,3,NULL,21589
1585140495,635dab3af851ec965111bc7fe5fe1ae9,Question,49,0,control-item12,NULL,<p><img src="https://github.com/alsugiharto/experiment-design/blob/master/images/filler_12.png?raw=true" alt="Italian Trulli"></p><p>Select the video you most likely click by selecting the number bellow.</p><p>The number follows the order of the video.</p>,1,NULL,22430
1585140495,635dab3af851ec965111bc7fe5fe1ae9,Question,16,0,exp_3_upleft_emotion_with,3,<p><img src="https://github.com/alsugiharto/experiment-design/blob/master/images/exp_3_upleft_emotion_with.png?raw=true" alt="Italian Trulli"></p><p>Select the video you most likely click by selecting the number bellow.</p><p>The number follows the order of the video.</p>,2,NULL,18962
1585140495,635dab3af851ec965111bc7fe5fe1ae9,Question,40,0,control-item3,NULL,<p><img src="https://github.com/alsugiharto/experiment-design/blob/master/images/filler_3.png?raw=true" alt="Italian Trulli"></p><p>Select the video you most likely click by selecting the number bellow.</p><p>The number follows the order of the video.</p>,2,NULL,32747
1585140495,635dab3af851ec965111bc7fe5fe1ae9,Question,44,0,control-item7,NULL,<p><img src="https://github.com/alsugiharto/experiment-design/blob/master/images/filler_7.png?raw=true" alt="Italian Trulli"></p><p>Select the video you most likely click by selecting the number bellow.</p><p>The number follows the order of the video.</p>,4,NULL,20793
1585140495,635dab3af851ec965111bc7fe5fe1ae9,Question,21,0,exp_4_upright_emotion_without,4,<p><img src="https://github.com/alsugiharto/experiment-design/blob/master/images/exp_4_upright_emotion_without.png?raw=true" alt="Italian Trulli"></p><p>Select the video you most likely click by selecting the number bellow.</p><p>The number follows the order of the video.</p>,1,NULL,9618
1585140495,635dab3af851ec965111bc7fe5fe1ae9,Question,38,0,control-item1,NULL,<p><img src="https://github.com/alsugiharto/experiment-design/blob/master/images/filler_1.png?raw=true" alt="Italian Trulli"></p><p>Select the video you most likely click by selecting the number bellow.</p><p>The number follows the order of the video.</p>,2,NULL,14973
1585140495,635dab3af851ec965111bc7fe5fe1ae9,Question,43,0,control-item6,NULL,<p><img src="https://github.com/alsugiharto/experiment-design/blob/master/images/filler_6.png?raw=true" alt="Italian Trulli"></p><p>Select the video you most likely click by selecting the number bellow.</p><p>The number follows the order of the video.</p>,3,NULL,15825
1585140495,635dab3af851ec965111bc7fe5fe1ae9,Question,27,0,exp_6_downright_emoji_without,6,<p><img src="https://github.com/alsugiharto/experiment-design/blob/master/images/exp_6_downright_emoji_without.png?raw=true" alt="Italian Trulli"></p><p>Select the video you most likely click by selecting the number bellow.</p><p>The number follows the order of the video.</p>,4,NULL,28223
1585140495,635dab3af851ec965111bc7fe5fe1ae9,Question,47,0,control-item10,NULL,<p><img src="https://github.com/alsugiharto/experiment-design/blob/master/images/filler_10.png?raw=true" alt="Italian Trulli"></p><p>Select the video you most likely click by selecting the number bellow.</p><p>The number follows the order of the video.</p>,1,NULL,28755
1585140495,635dab3af851ec965111bc7fe5fe1ae9,Question,6,0,exp_1_downright_emoji_with,1,<p><img src="https://github.com/alsugiharto/experiment-design/blob/master/images/exp_1_downright_emoji_with.png?raw=true" alt="Italian Trulli"></p><p>Select the video you most likely click by selecting the number bellow.</p><p>The number follows the order of the video.</p>,4,NULL,31889
1585140495,635dab3af851ec965111bc7fe5fe1ae9,Question,46,0,control-item9,NULL,<p><img src="https://github.com/alsugiharto/experiment-design/blob/master/images/filler_9.png?raw=true" alt="Italian Trulli"></p><p>Select the video you most likely click by selecting the number bellow.</p><p>The number follows the order of the video.</p>,2,NULL,11436
1585140495,635dab3af851ec965111bc7fe5fe1ae9,Question,22,0,exp_5_downleft_emoji_with,5,<p><img src="https://github.com/alsugiharto/experiment-design/blob/master/images/exp_5_downleft_emoji_with.png?raw=true" alt="Italian Trulli"></p><p>Select the video you most likely click by selecting the number bellow.</p><p>The number follows the order of the video.</p>,1,NULL,6331
1585140495,635dab3af851ec965111bc7fe5fe1ae9,Question,45,0,control-item8,NULL,<p><img src="https://github.com/alsugiharto/experiment-design/blob/master/images/filler_8.png?raw=true" alt="Italian Trulli"></p><p>Select the video you most likely click by selecting the number bellow.</p><p>The number follows the order of the video.</p>,1,NULL,10093
1585140495,635dab3af851ec965111bc7fe5fe1ae9,Question,48,0,control-item11,NULL,<p><img src="https://github.com/alsugiharto/experiment-design/blob/master/images/filler_11.png?raw=true" alt="Italian Trulli"></p><p>Select the video you most likely click by selecting the number bellow.</p><p>The number follows the order of the video.</p>,2,NULL,13370
1585140495,635dab3af851ec965111bc7fe5fe1ae9,Question,37,0,exp_8_topleft_emotion_without,8,<p><img src="https://github.com/alsugiharto/experiment-design/blob/master/images/exp_8_topleft_emotion_without.png?raw=true" alt="Italian Trulli"></p><p>Select the video you most likely click by selecting the number bellow.</p><p>The number follows the order of the video.</p>,3,NULL,6210
1585140495,635dab3af851ec965111bc7fe5fe1ae9,Question,42,0,control-item5,NULL,<p><img src="https://github.com/alsugiharto/experiment-design/blob/master/images/filler_5.png?raw=true" alt="Italian Trulli"></p><p>Select the video you most likely click by selecting the number bellow.</p><p>The number follows the order of the video.</p>,2,NULL,6987
1585140495,635dab3af851ec965111bc7fe5fe1ae9,Question,32,0,exp_7_topright_emotion_with,7,<p><img src="https://github.com/alsugiharto/experiment-design/blob/master/images/exp_7_topright_emotion_with.png?raw=true" alt="Italian Trulli"></p><p>Select the video you most likely click by selecting the number bellow.</p><p>The number follows the order of the video.</p>,3,NULL,6961
#
# Results on Wednesday March 25 2020 13:12:34 UTC.
# USER AGENT: Mozilla/5.0 (Linux; Android 10; SAMSUNG SM-N770F) AppleWebKit/537.36 (KHTML, like Gecko) SamsungBrowser/11.1 Chrome/75.0.3770.143 Mobile Safari/537.36
# Design number was non-random = 1
#
# Columns below this comment are as follows:
# 1. Time results were received.
# 2. MD5 hash of participant's IP address.
# 3. Controller name.
# 4. Item number.
# 5. Element number.
# 6. Type.
# 7. Group.
# 8. Field name.
# 9. Field value.
1585141955,3b6ec15b471b8e07e30eb2b753313e2a,Form,1,0,intro,NULL,consent,yes
1585141955,3b6ec15b471b8e07e30eb2b753313e2a,Form,1,0,intro,NULL,understand,yes
# Columns below this comment are as follows:
# 1. Time results were received.
# 2. MD5 hash of participant's IP address.
# 3. Controller name.
# 4. Item number.
# 5. Element number.
# 6. Type.
# 7. Group.
# 8. Question (NULL if none).
# 9. Answer.
# 10. Whether or not answer was correct (NULL if N/A).
# 11. Time taken to answer.
1585141955,3b6ec15b471b8e07e30eb2b753313e2a,Question,3,0,practice,NULL,<p>There are three practice items and this is the first one.</p><p><img src="https://github.com/alsugiharto/experiment-design/blob/master/images/example_1.png?raw=true" alt="Italian Trulli"></p><p>Select the video you most likely click by selecting the number bellow.</p><p>The number follows the order of the video.</p>,1,NULL,43047
1585141955,3b6ec15b471b8e07e30eb2b753313e2a,Question,4,0,practice,NULL,<p>There are three practice items and this is the first one.</p><p><img src="https://github.com/alsugiharto/experiment-design/blob/master/images/example_2.png?raw=true" alt="Italian Trulli"></p><p>Select the video you most likely click by selecting the number bellow.</p><p>The number follows the order of the video.</p>,3,NULL,38000
1585141955,3b6ec15b471b8e07e30eb2b753313e2a,Question,5,0,practice,NULL,<p>There are three practice items and this is the first one.</p><p><img src="https://github.com/alsugiharto/experiment-design/blob/master/images/example_3.png?raw=true" alt="Italian Trulli"></p><p>Select the video you most likely click by selecting the number bellow.</p><p>The number follows the order of the video.</p>,2,NULL,37310
1585141955,3b6ec15b471b8e07e30eb2b753313e2a,Question,46,0,control-item9,NULL,<p><img src="https://github.com/alsugiharto/experiment-design/blob/master/images/filler_9.png?raw=true" alt="Italian Trulli"></p><p>Select the video you most likely click by selecting the number bellow.</p><p>The number follows the order of the video.</p>,3,NULL,34041
1585141955,3b6ec15b471b8e07e30eb2b753313e2a,Question,23,0,exp_5_downleft_emoji_without,5,<p><img src="https://github.com/alsugiharto/experiment-design/blob/master/images/exp_5_downleft_emoji_without.png?raw=true" alt="Italian Trulli"></p><p>Select the video you most likely click by selecting the number bellow.</p><p>The number follows the order of the video.</p>,1,NULL,16923
1585141955,3b6ec15b471b8e07e30eb2b753313e2a,Question,48,0,control-item11,NULL,<p><img src="https://github.com/alsugiharto/experiment-design/blob/master/images/filler_11.png?raw=true" alt="Italian Trulli"></p><p>Select the video you most likely click by selecting the number bellow.</p><p>The number follows the order of the video.</p>,2,NULL,23289
1585141955,3b6ec15b471b8e07e30eb2b753313e2a,Question,12,0,exp_2_downleft_emotion_with,2,<p><img src="https://github.com/alsugiharto/experiment-design/blob/master/images/exp_2_downleft_emotion_with.png?raw=true" alt="Italian Trulli"></p><p>Select the video you most likely click by selecting the number bellow.</p><p>The number follows the order of the video.</p>,2,NULL,19492
1585141955,3b6ec15b471b8e07e30eb2b753313e2a,Question,38,0,control-item1,NULL,<p><img src="https://github.com/alsugiharto/experiment-design/blob/master/images/filler_1.png?raw=true" alt="Italian Trulli"></p><p>Select the video you most likely click by selecting the number bellow.</p><p>The number follows the order of the video.</p>,4,NULL,23780
1585141955,3b6ec15b471b8e07e30eb2b753313e2a,Question,40,0,control-item3,NULL,<p><img src="https://github.com/alsugiharto/experiment-design/blob/master/images/filler_3.png?raw=true" alt="Italian Trulli"></p><p>Select the video you most likely click by selecting the number bellow.</p><p>The number follows the order of the video.</p>,2,NULL,17229
1585141955,3b6ec15b471b8e07e30eb2b753313e2a,Question,7,0,exp_1_downright_emoji_without,1,<p><img src="https://github.com/alsugiharto/experiment-design/blob/master/images/exp_1_downright_emoji_without.png?raw=true" alt="Italian Trulli"></p><p>Select the video you most likely click by selecting the number bellow.</p><p>The number follows the order of the video.</p>,2,NULL,10081
1585141955,3b6ec15b471b8e07e30eb2b753313e2a,Question,42,0,control-item5,NULL,<p><img src="https://github.com/alsugiharto/experiment-design/blob/master/images/filler_5.png?raw=true" alt="Italian Trulli"></p><p>Select the video you most likely click by selecting the number bellow.</p><p>The number follows the order of the video.</p>,3,NULL,17140
1585141955,3b6ec15b471b8e07e30eb2b753313e2a,Question,49,0,control-item12,NULL,<p><img src="https://github.com/alsugiharto/experiment-design/blob/master/images/filler_12.png?raw=true" alt="Italian Trulli"></p><p>Select the video you most likely click by selecting the number bellow.</p><p>The number follows the order of the video.</p>,3,NULL,25717
1585141955,3b6ec15b471b8e07e30eb2b753313e2a,Question,17,0,exp_3_upleft_emotion_without,3,<p><img src="https://github.com/alsugiharto/experiment-design/blob/master/images/exp_3_upleft_emotion_without.png?raw=true" alt="Italian Trulli"></p><p>Select the video you most likely click by selecting the number bellow.</p><p>The number follows the order of the video.</p>,2,NULL,16326
1585141955,3b6ec15b471b8e07e30eb2b753313e2a,Question,47,0,control-item10,NULL,<p><img src="https://github.com/alsugiharto/experiment-design/blob/master/images/filler_10.png?raw=true" alt="Italian Trulli"></p><p>Select the video you most likely click by selecting the number bellow.</p><p>The number follows the order of the video.</p>,1,NULL,14475
1585141955,3b6ec15b471b8e07e30eb2b753313e2a,Question,18,0,exp_4_upright_emoji_with,4,<p><img src="https://github.com/alsugiharto/experiment-design/blob/master/images/exp_4_upright_emoji_with.png?raw=true" alt="Italian Trulli"></p><p>Select the video you most likely click by selecting the number bellow.</p><p>The number follows the order of the video.</p>,1,NULL,16561
1585141955,3b6ec15b471b8e07e30eb2b753313e2a,Question,41,0,control-item4,NULL,<p><img src="https://github.com/alsugiharto/experiment-design/blob/master/images/filler_4.png?raw=true" alt="Italian Trulli"></p><p>Select the video you most likely click by selecting the number bellow.</p><p>The number follows the order of the video.</p>,2,NULL,27554
1585141955,3b6ec15b471b8e07e30eb2b753313e2a,Question,34,0,exp_8_topleft_emoji_with,8,<p><img src="https://github.com/alsugiharto/experiment-design/blob/master/images/exp_8_topleft_emoji_with.png?raw=true" alt="Italian Trulli"></p><p>Select the video you most likely click by selecting the number bellow.</p><p>The number follows the order of the video.</p>,4,NULL,20430
1585141955,3b6ec15b471b8e07e30eb2b753313e2a,Question,44,0,control-item7,NULL,<p><img src="https://github.com/alsugiharto/experiment-design/blob/master/images/filler_7.png?raw=true" alt="Italian Trulli"></p><p>Select the video you most likely click by selecting the number bellow.</p><p>The number follows the order of the video.</p>,3,NULL,21178
1585141955,3b6ec15b471b8e07e30eb2b753313e2a,Question,43,0,control-item6,NULL,<p><img src="https://github.com/alsugiharto/experiment-design/blob/master/images/filler_6.png?raw=true" alt="Italian Trulli"></p><p>Select the video you most likely click by selecting the number bellow.</p><p>The number follows the order of the video.</p>,1,NULL,14085
1585141955,3b6ec15b471b8e07e30eb2b753313e2a,Question,33,0,exp_7_topright_emotion_without,7,<p><img src="https://github.com/alsugiharto/experiment-design/blob/master/images/exp_7_topright_emotion_without.png?raw=true" alt="Italian Trulli"></p><p>Select the video you most likely click by selecting the number bellow.</p><p>The number follows the order of the video.</p>,4,NULL,14290
1585141955,3b6ec15b471b8e07e30eb2b753313e2a,Question,39,0,control-item2,NULL,<p><img src="https://github.com/alsugiharto/experiment-design/blob/master/images/filler_2.png?raw=true" alt="Italian Trulli"></p><p>Select the video you most likely click by selecting the number bellow.</p><p>The number follows the order of the video.</p>,1,NULL,9483
1585141955,3b6ec15b471b8e07e30eb2b753313e2a,Question,28,0,exp_6_downright_emotion_with,6,<p><img src="https://github.com/alsugiharto/experiment-design/blob/master/images/exp_6_downright_emotion_with.png?raw=true" alt="Italian Trulli"></p><p>Select the video you most likely click by selecting the number bellow.</p><p>The number follows the order of the video.</p>,3,NULL,8715
1585141955,3b6ec15b471b8e07e30eb2b753313e2a,Question,45,0,control-item8,NULL,<p><img src="https://github.com/alsugiharto/experiment-design/blob/master/images/filler_8.png?raw=true" alt="Italian Trulli"></p><p>Select the video you most likely click by selecting the number bellow.</p><p>The number follows the order of the video.</p>,2,NULL,6810
#
# Results on Wednesday March 25 2020 13:24:31 UTC.
# USER AGENT: Mozilla/5.0 (Linux; Android 9; vivo 1918) AppleWebKit/537.36 (KHTML, like Gecko) SamsungBrowser/11.1 Chrome/75.0.3770.143 Mobile Safari/537.36
# Design number was non-random = 2
#
# Columns below this comment are as follows:
# 1. Time results were received.
# 2. MD5 hash of participant's IP address.
# 3. Controller name.
# 4. Item number.
# 5. Element number.
# 6. Type.
# 7. Group.
# 8. Field name.
# 9. Field value.
1585142672,e14e16414c7207ce698250f15a46ede2,Form,1,0,intro,NULL,consent,yes
1585142672,e14e16414c7207ce698250f15a46ede2,Form,1,0,intro,NULL,understand,yes
# Columns below this comment are as follows:
# 1. Time results were received.
# 2. MD5 hash of participant's IP address.
# 3. Controller name.
# 4. Item number.
# 5. Element number.
# 6. Type.
# 7. Group.
# 8. Question (NULL if none).
# 9. Answer.
# 10. Whether or not answer was correct (NULL if N/A).
# 11. Time taken to answer.
1585142672,e14e16414c7207ce698250f15a46ede2,Question,3,0,practice,NULL,<p>There are three practice items and this is the first one.</p><p><img src="https://github.com/alsugiharto/experiment-design/blob/master/images/example_1.png?raw=true" alt="Italian Trulli"></p><p>Select the video you most likely click by selecting the number bellow.</p><p>The number follows the order of the video.</p>,1,NULL,23804
1585142672,e14e16414c7207ce698250f15a46ede2,Question,4,0,practice,NULL,<p>There are three practice items and this is the first one.</p><p><img src="https://github.com/alsugiharto/experiment-design/blob/master/images/example_2.png?raw=true" alt="Italian Trulli"></p><p>Select the video you most likely click by selecting the number bellow.</p><p>The number follows the order of the video.</p>,2,NULL,24518
1585142672,e14e16414c7207ce698250f15a46ede2,Question,5,0,practice,NULL,<p>There are three practice items and this is the first one.</p><p><img src="https://github.com/alsugiharto/experiment-design/blob/master/images/example_3.png?raw=true" alt="Italian Trulli"></p><p>Select the video you most likely click by selecting the number bellow.</p><p>The number follows the order of the video.</p>,4,NULL,22003
1585142672,e14e16414c7207ce698250f15a46ede2,Question,44,0,control-item7,NULL,<p><img src="https://github.com/alsugiharto/experiment-design/blob/master/images/filler_7.png?raw=true" alt="Italian Trulli"></p><p>Select the video you most likely click by selecting the number bellow.</p><p>The number follows the order of the video.</p>,4,NULL,14932
1585142672,e14e16414c7207ce698250f15a46ede2,Question,38,0,control-item1,NULL,<p><img src="https://github.com/alsugiharto/experiment-design/blob/master/images/filler_1.png?raw=true" alt="Italian Trulli"></p><p>Select the video you most likely click by selecting the number bellow.</p><p>The number follows the order of the video.</p>,4,NULL,12856
1585142672,e14e16414c7207ce698250f15a46ede2,Question,24,0,exp_5_downleft_emotion_with,5,<p><img src="https://github.com/alsugiharto/experiment-design/blob/master/images/exp_5_downleft_emotion_with.png?raw=true" alt="Italian Trulli"></p><p>Select the video you most likely click by selecting the number bellow.</p><p>The number follows the order of the video.</p>,1,NULL,10217
1585142672,e14e16414c7207ce698250f15a46ede2,Question,46,0,control-item9,NULL,<p><img src="https://github.com/alsugiharto/experiment-design/blob/master/images/filler_9.png?raw=true" alt="Italian Trulli"></p><p>Select the video you most likely click by selecting the number bellow.</p><p>The number follows the order of the video.</p>,4,NULL,9610
1585142672,e14e16414c7207ce698250f15a46ede2,Question,29,0,exp_6_downright_emotion_without,6,<p><img src="https://github.com/alsugiharto/experiment-design/blob/master/images/exp_6_downright_emotion_without.png?raw=true" alt="Italian Trulli"></p><p>Select the video you most likely click by selecting the number bellow.</p><p>The number follows the order of the video.</p>,3,NULL,11724
1585142672,e14e16414c7207ce698250f15a46ede2,Question,49,0,control-item12,NULL,<p><img src="https://github.com/alsugiharto/experiment-design/blob/master/images/filler_12.png?raw=true" alt="Italian Trulli"></p><p>Select the video you most likely click by selecting the number bellow.</p><p>The number follows the order of the video.</p>,1,NULL,11899
1585142672,e14e16414c7207ce698250f15a46ede2,Question,48,0,control-item11,NULL,<p><img src="https://github.com/alsugiharto/experiment-design/blob/master/images/filler_11.png?raw=true" alt="Italian Trulli"></p><p>Select the video you most likely click by selecting the number bellow.</p><p>The number follows the order of the video.</p>,1,NULL,8393
1585142672,e14e16414c7207ce698250f15a46ede2,Question,35,0,exp_8_topleft_emoji_without,8,<p><img src="https://github.com/alsugiharto/experiment-design/blob/master/images/exp_8_topleft_emoji_without.png?raw=true" alt="Italian Trulli"></p><p>Select the video you most likely click by selecting the number bellow.</p><p>The number follows the order of the video.</p>,2,NULL,13618
1585142672,e14e16414c7207ce698250f15a46ede2,Question,43,0,control-item6,NULL,<p><img src="https://github.com/alsugiharto/experiment-design/blob/master/images/filler_6.png?raw=true" alt="Italian Trulli"></p><p>Select the video you most likely click by selecting the number bellow.</p><p>The number follows the order of the video.</p>,3,NULL,92591
1585142672,e14e16414c7207ce698250f15a46ede2,Question,39,0,control-item2,NULL,<p><img src="https://github.com/alsugiharto/experiment-design/blob/master/images/filler_2.png?raw=true" alt="Italian Trulli"></p><p>Select the video you most likely click by selecting the number bellow.</p><p>The number follows the order of the video.</p>,4,NULL,11283
1585142672,e14e16414c7207ce698250f15a46ede2,Question,13,0,exp_2_downleft_emotion_without,2,<p><img src="https://github.com/alsugiharto/experiment-design/blob/master/images/exp_2_downleft_emotion_without.png?raw=true" alt="Italian Trulli"></p><p>Select the video you most likely click by selecting the number bellow.</p><p>The number follows the order of the video.</p>,1,NULL,8070
1585142672,e14e16414c7207ce698250f15a46ede2,Question,42,0,control-item5,NULL,<p><img src="https://github.com/alsugiharto/experiment-design/blob/master/images/filler_5.png?raw=true" alt="Italian Trulli"></p><p>Select the video you most likely click by selecting the number bellow.</p><p>The number follows the order of the video.</p>,1,NULL,7411
1585142672,e14e16414c7207ce698250f15a46ede2,Question,19,0,exp_4_upright_emoji_without,4,<p><img src="https://github.com/alsugiharto/experiment-design/blob/master/images/exp_4_upright_emoji_without.png?raw=true" alt="Italian Trulli"></p><p>Select the video you most likely click by selecting the number bellow.</p><p>The number follows the order of the video.</p>,1,NULL,50546
1585142672,e14e16414c7207ce698250f15a46ede2,Question,45,0,control-item8,NULL,<p><img src="https://github.com/alsugiharto/experiment-design/blob/master/images/filler_8.png?raw=true" alt="Italian Trulli"></p><p>Select the video you most likely click by selecting the number bellow.</p><p>The number follows the order of the video.</p>,2,NULL,7449
1585142672,e14e16414c7207ce698250f15a46ede2,Question,30,0,exp_7_topright_emoji_with,7,<p><img src="https://github.com/alsugiharto/experiment-design/blob/master/images/exp_7_topright_emoji_with.png?raw=true" alt="Italian Trulli"></p><p>Select the video you most likely click by selecting the number bellow.</p><p>The number follows the order of the video.</p>,2,NULL,4306
1585142672,e14e16414c7207ce698250f15a46ede2,Question,40,0,control-item3,NULL,<p><img src="https://github.com/alsugiharto/experiment-design/blob/master/images/filler_3.png?raw=true" alt="Italian Trulli"></p><p>Select the video you most likely click by selecting the number bellow.</p><p>The number follows the order of the video.</p>,1,NULL,14872
1585142672,e14e16414c7207ce698250f15a46ede2,Question,41,0,control-item4,NULL,<p><img src="https://github.com/alsugiharto/experiment-design/blob/master/images/filler_4.png?raw=true" alt="Italian Trulli"></p><p>Select the video you most likely click by selecting the number bellow.</p><p>The number follows the order of the video.</p>,1,NULL,15966
1585142672,e14e16414c7207ce698250f15a46ede2,Question,14,0,exp_3_upleft_emoji_with,3,<p><img src="https://github.com/alsugiharto/experiment-design/blob/master/images/exp_3_upleft_emoji_with.png?raw=true" alt="Italian Trulli"></p><p>Select the video you most likely click by selecting the number bellow.</p><p>The number follows the order of the video.</p>,4,NULL,10722
1585142672,e14e16414c7207ce698250f15a46ede2,Question,47,0,control-item10,NULL,<p><img src="https://github.com/alsugiharto/experiment-design/blob/master/images/filler_10.png?raw=true" alt="Italian Trulli"></p><p>Select the video you most likely click by selecting the number bellow.</p><p>The number follows the order of the video.</p>,4,NULL,10273
1585142672,e14e16414c7207ce698250f15a46ede2,Question,8,0,exp_1_downright_emotion_with,1,<p><img src="https://github.com/alsugiharto/experiment-design/blob/master/images/exp_1_downright_emotion_with.png?raw=true" alt="Italian Trulli"></p><p>Select the video you most likely click by selecting the number bellow.</p><p>The number follows the order of the video.</p>,2,NULL,13685
#
# Results on Wednesday March 25 2020 13:29:52 UTC.
# USER AGENT: Mozilla/5.0 (Linux; U; Android 7.1.1; in-id; CPH1729 Build/N6F26Q) AppleWebKit/537.36 (KHTML, like Gecko) Version/4.0 Chrome/70.0.3538.80 Mobile Safari/537.36 OppoBrowser/15.6.3.0.3beta
# Design number was non-random = 2
#
# Columns below this comment are as follows:
# 1. Time results were received.
# 2. MD5 hash of participant's IP address.
# 3. Controller name.
# 4. Item number.
# 5. Element number.
# 6. Type.
# 7. Group.
# 8. Field name.
# 9. Field value.
1585142992,ed123b8ab2dafdf8f6379fe44eaed097,Form,1,0,intro,NULL,consent,yes
1585142992,ed123b8ab2dafdf8f6379fe44eaed097,Form,1,0,intro,NULL,understand,yes
# Columns below this comment are as follows:
# 1. Time results were received.
# 2. MD5 hash of participant's IP address.
# 3. Controller name.
# 4. Item number.
# 5. Element number.
# 6. Type.
# 7. Group.
# 8. Question (NULL if none).
# 9. Answer.
# 10. Whether or not answer was correct (NULL if N/A).
# 11. Time taken to answer.
1585142992,ed123b8ab2dafdf8f6379fe44eaed097,Question,3,0,practice,NULL,<p>There are three practice items and this is the first one.</p><p><img src="https://github.com/alsugiharto/experiment-design/blob/master/images/example_1.png?raw=true" alt="Italian Trulli"></p><p>Select the video you most likely click by selecting the number bellow.</p><p>The number follows the order of the video.</p>,2,NULL,30374
1585142992,ed123b8ab2dafdf8f6379fe44eaed097,Question,4,0,practice,NULL,<p>There are three practice items and this is the first one.</p><p><img src="https://github.com/alsugiharto/experiment-design/blob/master/images/example_2.png?raw=true" alt="Italian Trulli"></p><p>Select the video you most likely click by selecting the number bellow.</p><p>The number follows the order of the video.</p>,4,NULL,30262
1585142992,ed123b8ab2dafdf8f6379fe44eaed097,Question,5,0,practice,NULL,<p>There are three practice items and this is the first one.</p><p><img src="https://github.com/alsugiharto/experiment-design/blob/master/images/example_3.png?raw=true" alt="Italian Trulli"></p><p>Select the video you most likely click by selecting the number bellow.</p><p>The number follows the order of the video.</p>,2,NULL,35144
1585142992,ed123b8ab2dafdf8f6379fe44eaed097,Question,47,0,control-item10,NULL,<p><img src="https://github.com/alsugiharto/experiment-design/blob/master/images/filler_10.png?raw=true" alt="Italian Trulli"></p><p>Select the video you most likely click by selecting the number bellow.</p><p>The number follows the order of the video.</p>,3,NULL,36836
1585142992,ed123b8ab2dafdf8f6379fe44eaed097,Question,48,0,control-item11,NULL,<p><img src="https://github.com/alsugiharto/experiment-design/blob/master/images/filler_11.png?raw=true" alt="Italian Trulli"></p><p>Select the video you most likely click by selecting the number bellow.</p><p>The number follows the order of the video.</p>,2,NULL,25004
1585142992,ed123b8ab2dafdf8f6379fe44eaed097,Question,35,0,exp_8_topleft_emoji_without,8,<p><img src="https://github.com/alsugiharto/experiment-design/blob/master/images/exp_8_topleft_emoji_without.png?raw=true" alt="Italian Trulli"></p><p>Select the video you most likely click by selecting the number bellow.</p><p>The number follows the order of the video.</p>,4,NULL,24289
1585142992,ed123b8ab2dafdf8f6379fe44eaed097,Question,45,0,control-item8,NULL,<p><img src="https://github.com/alsugiharto/experiment-design/blob/master/images/filler_8.png?raw=true" alt="Italian Trulli"></p><p>Select the video you most likely click by selecting the number bellow.</p><p>The number follows the order of the video.</p>,2,NULL,18718
1585142992,ed123b8ab2dafdf8f6379fe44eaed097,Question,14,0,exp_3_upleft_emoji_with,3,<p><img src="https://github.com/alsugiharto/experiment-design/blob/master/images/exp_3_upleft_emoji_with.png?raw=true" alt="Italian Trulli"></p><p>Select the video you most likely click by selecting the number bellow.</p><p>The number follows the order of the video.</p>,2,NULL,9874
1585142992,ed123b8ab2dafdf8f6379fe44eaed097,Question,39,0,control-item2,NULL,<p><img src="https://github.com/alsugiharto/experiment-design/blob/master/images/filler_2.png?raw=true" alt="Italian Trulli"></p><p>Select the video you most likely click by selecting the number bellow.</p><p>The number follows the order of the video.</p>,2,NULL,21280
1585142992,ed123b8ab2dafdf8f6379fe44eaed097,Question,40,0,control-item3,NULL,<p><img src="https://github.com/alsugiharto/experiment-design/blob/master/images/filler_3.png?raw=true" alt="Italian Trulli"></p><p>Select the video you most likely click by selecting the number bellow.</p><p>The number follows the order of the video.</p>,4,NULL,19618
1585142992,ed123b8ab2dafdf8f6379fe44eaed097,Question,24,0,exp_5_downleft_emotion_with,5,<p><img src="https://github.com/alsugiharto/experiment-design/blob/master/images/exp_5_downleft_emotion_with.png?raw=true" alt="Italian Trulli"></p><p>Select the video you most likely click by selecting the number bellow.</p><p>The number follows the order of the video.</p>,2,NULL,21576
1585142992,ed123b8ab2dafdf8f6379fe44eaed097,Question,38,0,control-item1,NULL,<p><img src="https://github.com/alsugiharto/experiment-design/blob/master/images/filler_1.png?raw=true" alt="Italian Trulli"></p><p>Select the video you most likely click by selecting the number bellow.</p><p>The number follows the order of the video.</p>,1,NULL,14041
1585142992,ed123b8ab2dafdf8f6379fe44eaed097,Question,49,0,control-item12,NULL,<p><img src="https://github.com/alsugiharto/experiment-design/blob/master/images/filler_12.png?raw=true" alt="Italian Trulli"></p><p>Select the video you most likely click by selecting the number bellow.</p><p>The number follows the order of the video.</p>,1,NULL,14464
1585142992,ed123b8ab2dafdf8f6379fe44eaed097,Question,29,0,exp_6_downright_emotion_without,6,<p><img src="https://github.com/alsugiharto/experiment-design/blob/master/images/exp_6_downright_emotion_without.png?raw=true" alt="Italian Trulli"></p><p>Select the video you most likely click by selecting the number bellow.</p><p>The number follows the order of the video.</p>,3,NULL,18672
1585142992,ed123b8ab2dafdf8f6379fe44eaed097,Question,43,0,control-item6,NULL,<p><img src="https://github.com/alsugiharto/experiment-design/blob/master/images/filler_6.png?raw=true" alt="Italian Trulli"></p><p>Select the video you most likely click by selecting the number bellow.</p><p>The number follows the order of the video.</p>,3,NULL,21711
1585142992,ed123b8ab2dafdf8f6379fe44eaed097,Question,30,0,exp_7_topright_emoji_with,7,<p><img src="https://github.com/alsugiharto/experiment-design/blob/master/images/exp_7_topright_emoji_with.png?raw=true" alt="Italian Trulli"></p><p>Select the video you most likely click by selecting the number bellow.</p><p>The number follows the order of the video.</p>,3,NULL,18303
1585142992,ed123b8ab2dafdf8f6379fe44eaed097,Question,46,0,control-item9,NULL,<p><img src="https://github.com/alsugiharto/experiment-design/blob/master/images/filler_9.png?raw=true" alt="Italian Trulli"></p><p>Select the video you most likely click by selecting the number bellow.</p><p>The number follows the order of the video.</p>,2,NULL,8865
1585142992,ed123b8ab2dafdf8f6379fe44eaed097,Question,19,0,exp_4_upright_emoji_without,4,<p><img src="https://github.com/alsugiharto/experiment-design/blob/master/images/exp_4_upright_emoji_without.png?raw=true" alt="Italian Trulli"></p><p>Select the video you most likely click by selecting the number bellow.</p><p>The number follows the order of the video.</p>,4,NULL,20617
1585142992,ed123b8ab2dafdf8f6379fe44eaed097,Question,42,0,control-item5,NULL,<p><img src="https://github.com/alsugiharto/experiment-design/blob/master/images/filler_5.png?raw=true" alt="Italian Trulli"></p><p>Select the video you most likely click by selecting the number bellow.</p><p>The number follows the order of the video.</p>,4,NULL,8760
1585142992,ed123b8ab2dafdf8f6379fe44eaed097,Question,41,0,control-item4,NULL,<p><img src="https://github.com/alsugiharto/experiment-design/blob/master/images/filler_4.png?raw=true" alt="Italian Trulli"></p><p>Select the video you most likely click by selecting the number bellow.</p><p>The number follows the order of the video.</p>,4,NULL,15809
1585142992,ed123b8ab2dafdf8f6379fe44eaed097,Question,8,0,exp_1_downright_emotion_with,1,<p><img src="https://github.com/alsugiharto/experiment-design/blob/master/images/exp_1_downright_emotion_with.png?raw=true" alt="Italian Trulli"></p><p>Select the video you most likely click by selecting the number bellow.</p><p>The number follows the order of the video.</p>,2,NULL,8613
1585142992,ed123b8ab2dafdf8f6379fe44eaed097,Question,44,0,control-item7,NULL,<p><img src="https://github.com/alsugiharto/experiment-design/blob/master/images/filler_7.png?raw=true" alt="Italian Trulli"></p><p>Select the video you most likely click by selecting the number bellow.</p><p>The number follows the order of the video.</p>,1,NULL,13588
1585142992,ed123b8ab2dafdf8f6379fe44eaed097,Question,13,0,exp_2_downleft_emotion_without,2,<p><img src="https://github.com/alsugiharto/experiment-design/blob/master/images/exp_2_downleft_emotion_without.png?raw=true" alt="Italian Trulli"></p><p>Select the video you most likely click by selecting the number bellow.</p><p>The number follows the order of the video.</p>,4,NULL,18546
#
# Results on Wednesday March 25 2020 13:30:54 UTC.
# USER AGENT: Mozilla/5.0 (Macintosh; Intel Mac OS X 10_14_5) AppleWebKit/537.36 (KHTML, like Gecko) Chrome/80.0.3987.122 Safari/537.36
# Design number was non-random = 2
#
# Columns below this comment are as follows:
# 1. Time results were received.
# 2. MD5 hash of participant's IP address.
# 3. Controller name.
# 4. Item number.
# 5. Element number.
# 6. Type.
# 7. Group.
# 8. Field name.
# 9. Field value.
1585143055,0b55aa521dc8bb3169cf19f0a1d427d2,Form,1,0,intro,NULL,consent,yes
1585143055,0b55aa521dc8bb3169cf19f0a1d427d2,Form,1,0,intro,NULL,understand,yes
# Columns below this comment are as follows:
# 1. Time results were received.
# 2. MD5 hash of participant's IP address.
# 3. Controller name.
# 4. Item number.
# 5. Element number.
# 6. Type.
# 7. Group.
# 8. Question (NULL if none).
# 9. Answer.
# 10. Whether or not answer was correct (NULL if N/A).
# 11. Time taken to answer.
1585143055,0b55aa521dc8bb3169cf19f0a1d427d2,Question,3,0,practice,NULL,<p>There are three practice items and this is the first one.</p><p><img src="https://github.com/alsugiharto/experiment-design/blob/master/images/example_1.png?raw=true" alt="Italian Trulli"></p><p>Select the video you most likely click by selecting the number bellow.</p><p>The number follows the order of the video.</p>,1,NULL,25347
1585143055,0b55aa521dc8bb3169cf19f0a1d427d2,Question,4,0,practice,NULL,<p>There are three practice items and this is the first one.</p><p><img src="https://github.com/alsugiharto/experiment-design/blob/master/images/example_2.png?raw=true" alt="Italian Trulli"></p><p>Select the video you most likely click by selecting the number bellow.</p><p>The number follows the order of the video.</p>,1,NULL,22806
1585143055,0b55aa521dc8bb3169cf19f0a1d427d2,Question,5,0,practice,NULL,<p>There are three practice items and this is the first one.</p><p><img src="https://github.com/alsugiharto/experiment-design/blob/master/images/example_3.png?raw=true" alt="Italian Trulli"></p><p>Select the video you most likely click by selecting the number bellow.</p><p>The number follows the order of the video.</p>,2,NULL,12013
1585143055,0b55aa521dc8bb3169cf19f0a1d427d2,Question,41,0,control-item4,NULL,<p><img src="https://github.com/alsugiharto/experiment-design/blob/master/images/filler_4.png?raw=true" alt="Italian Trulli"></p><p>Select the video you most likely click by selecting the number bellow.</p><p>The number follows the order of the video.</p>,2,NULL,13992
1585143055,0b55aa521dc8bb3169cf19f0a1d427d2,Question,47,0,control-item10,NULL,<p><img src="https://github.com/alsugiharto/experiment-design/blob/master/images/filler_10.png?raw=true" alt="Italian Trulli"></p><p>Select the video you most likely click by selecting the number bellow.</p><p>The number follows the order of the video.</p>,3,NULL,15320
1585143055,0b55aa521dc8bb3169cf19f0a1d427d2,Question,29,0,exp_6_downright_emotion_without,6,<p><img src="https://github.com/alsugiharto/experiment-design/blob/master/images/exp_6_downright_emotion_without.png?raw=true" alt="Italian Trulli"></p><p>Select the video you most likely click by selecting the number bellow.</p><p>The number follows the order of the video.</p>,1,NULL,11066
1585143055,0b55aa521dc8bb3169cf19f0a1d427d2,Question,42,0,control-item5,NULL,<p><img src="https://github.com/alsugiharto/experiment-design/blob/master/images/filler_5.png?raw=true" alt="Italian Trulli"></p><p>Select the video you most likely click by selecting the number bellow.</p><p>The number follows the order of the video.</p>,1,NULL,11008
1585143055,0b55aa521dc8bb3169cf19f0a1d427d2,Question,35,0,exp_8_topleft_emoji_without,8,<p><img src="https://github.com/alsugiharto/experiment-design/blob/master/images/exp_8_topleft_emoji_without.png?raw=true" alt="Italian Trulli"></p><p>Select the video you most likely click by selecting the number bellow.</p><p>The number follows the order of the video.</p>,3,NULL,14293
1585143055,0b55aa521dc8bb3169cf19f0a1d427d2,Question,43,0,control-item6,NULL,<p><img src="https://github.com/alsugiharto/experiment-design/blob/master/images/filler_6.png?raw=true" alt="Italian Trulli"></p><p>Select the video you most likely click by selecting the number bellow.</p><p>The number follows the order of the video.</p>,4,NULL,12538
1585143055,0b55aa521dc8bb3169cf19f0a1d427d2,Question,46,0,control-item9,NULL,<p><img src="https://github.com/alsugiharto/experiment-design/blob/master/images/filler_9.png?raw=true" alt="Italian Trulli"></p><p>Select the video you most likely click by selecting the number bellow.</p><p>The number follows the order of the video.</p>,4,NULL,12947
1585143055,0b55aa521dc8bb3169cf19f0a1d427d2,Question,24,0,exp_5_downleft_emotion_with,5,<p><img src="https://github.com/alsugiharto/experiment-design/blob/master/images/exp_5_downleft_emotion_with.png?raw=true" alt="Italian Trulli"></p><p>Select the video you most likely click by selecting the number bellow.</p><p>The number follows the order of the video.</p>,1,NULL,6071
1585143055,0b55aa521dc8bb3169cf19f0a1d427d2,Question,45,0,control-item8,NULL,<p><img src="https://github.com/alsugiharto/experiment-design/blob/master/images/filler_8.png?raw=true" alt="Italian Trulli"></p><p>Select the video you most likely click by selecting the number bellow.</p><p>The number follows the order of the video.</p>,4,NULL,8433
1585143055,0b55aa521dc8bb3169cf19f0a1d427d2,Question,40,0,control-item3,NULL,<p><img src="https://github.com/alsugiharto/experiment-design/blob/master/images/filler_3.png?raw=true" alt="Italian Trulli"></p><p>Select the video you most likely click by selecting the number bellow.</p><p>The number follows the order of the video.</p>,2,NULL,8045
1585143055,0b55aa521dc8bb3169cf19f0a1d427d2,Question,30,0,exp_7_topright_emoji_with,7,<p><img src="https://github.com/alsugiharto/experiment-design/blob/master/images/exp_7_topright_emoji_with.png?raw=true" alt="Italian Trulli"></p><p>Select the video you most likely click by selecting the number bellow.</p><p>The number follows the order of the video.</p>,3,NULL,10907
1585143055,0b55aa521dc8bb3169cf19f0a1d427d2,Question,48,0,control-item11,NULL,<p><img src="https://github.com/alsugiharto/experiment-design/blob/master/images/filler_11.png?raw=true" alt="Italian Trulli"></p><p>Select the video you most likely click by selecting the number bellow.</p><p>The number follows the order of the video.</p>,2,NULL,10383
1585143055,0b55aa521dc8bb3169cf19f0a1d427d2,Question,14,0,exp_3_upleft_emoji_with,3,<p><img src="https://github.com/alsugiharto/experiment-design/blob/master/images/exp_3_upleft_emoji_with.png?raw=true" alt="Italian Trulli"></p><p>Select the video you most likely click by selecting the number bellow.</p><p>The number follows the order of the video.</p>,1,NULL,10276
1585143055,0b55aa521dc8bb3169cf19f0a1d427d2,Question,49,0,control-item12,NULL,<p><img src="https://github.com/alsugiharto/experiment-design/blob/master/images/filler_12.png?raw=true" alt="Italian Trulli"></p><p>Select the video you most likely click by selecting the number bellow.</p><p>The number follows the order of the video.</p>,1,NULL,7427
1585143055,0b55aa521dc8bb3169cf19f0a1d427d2,Question,13,0,exp_2_downleft_emotion_without,2,<p><img src="https://github.com/alsugiharto/experiment-design/blob/master/images/exp_2_downleft_emotion_without.png?raw=true" alt="Italian Trulli"></p><p>Select the video you most likely click by selecting the number bellow.</p><p>The number follows the order of the video.</p>,2,NULL,12278
1585143055,0b55aa521dc8bb3169cf19f0a1d427d2,Question,44,0,control-item7,NULL,<p><img src="https://github.com/alsugiharto/experiment-design/blob/master/images/filler_7.png?raw=true" alt="Italian Trulli"></p><p>Select the video you most likely click by selecting the number bellow.</p><p>The number follows the order of the video.</p>,1,NULL,10187
1585143055,0b55aa521dc8bb3169cf19f0a1d427d2,Question,39,0,control-item2,NULL,<p><img src="https://github.com/alsugiharto/experiment-design/blob/master/images/filler_2.png?raw=true" alt="Italian Trulli"></p><p>Select the video you most likely click by selecting the number bellow.</p><p>The number follows the order of the video.</p>,2,NULL,12899
1585143055,0b55aa521dc8bb3169cf19f0a1d427d2,Question,8,0,exp_1_downright_emotion_with,1,<p><img src="https://github.com/alsugiharto/experiment-design/blob/master/images/exp_1_downright_emotion_with.png?raw=true" alt="Italian Trulli"></p><p>Select the video you most likely click by selecting the number bellow.</p><p>The number follows the order of the video.</p>,1,NULL,8378
1585143055,0b55aa521dc8bb3169cf19f0a1d427d2,Question,38,0,control-item1,NULL,<p><img src="https://github.com/alsugiharto/experiment-design/blob/master/images/filler_1.png?raw=true" alt="Italian Trulli"></p><p>Select the video you most likely click by selecting the number bellow.</p><p>The number follows the order of the video.</p>,1,NULL,10752
1585143055,0b55aa521dc8bb3169cf19f0a1d427d2,Question,19,0,exp_4_upright_emoji_without,4,<p><img src="https://github.com/alsugiharto/experiment-design/blob/master/images/exp_4_upright_emoji_without.png?raw=true" alt="Italian Trulli"></p><p>Select the video you most likely click by selecting the number bellow.</p><p>The number follows the order of the video.</p>,2,NULL,11643
#
# Results on Wednesday March 25 2020 13:35:49 UTC.
# USER AGENT: Mozilla/5.0 (iPhone; CPU iPhone OS 13_3_1 like Mac OS X) AppleWebKit/605.1.15 (KHTML, like Gecko) Version/13.0.5 Mobile/15E148 Safari/604.1
# Design number was non-random = 5
#
# Columns below this comment are as follows:
# 1. Time results were received.
# 2. MD5 hash of participant's IP address.
# 3. Controller name.
# 4. Item number.
# 5. Element number.
# 6. Type.
# 7. Group.
# 8. Field name.
# 9. Field value.
1585143349,220c1b35190ef4912520473c57d1e183,Form,1,0,intro,NULL,consent,yes
1585143349,220c1b35190ef4912520473c57d1e183,Form,1,0,intro,NULL,understand,yes
# Columns below this comment are as follows:
# 1. Time results were received.
# 2. MD5 hash of participant's IP address.
# 3. Controller name.
# 4. Item number.
# 5. Element number.
# 6. Type.
# 7. Group.
# 8. Question (NULL if none).
# 9. Answer.
# 10. Whether or not answer was correct (NULL if N/A).
# 11. Time taken to answer.
1585143349,220c1b35190ef4912520473c57d1e183,Question,3,0,practice,NULL,<p>There are three practice items and this is the first one.</p><p><img src="https://github.com/alsugiharto/experiment-design/blob/master/images/example_1.png?raw=true" alt="Italian Trulli"></p><p>Select the video you most likely click by selecting the number bellow.</p><p>The number follows the order of the video.</p>,2,NULL,26058
1585143349,220c1b35190ef4912520473c57d1e183,Question,4,0,practice,NULL,<p>There are three practice items and this is the first one.</p><p><img src="https://github.com/alsugiharto/experiment-design/blob/master/images/example_2.png?raw=true" alt="Italian Trulli"></p><p>Select the video you most likely click by selecting the number bellow.</p><p>The number follows the order of the video.</p>,1,NULL,15038
1585143349,220c1b35190ef4912520473c57d1e183,Question,5,0,practice,NULL,<p>There are three practice items and this is the first one.</p><p><img src="https://github.com/alsugiharto/experiment-design/blob/master/images/example_3.png?raw=true" alt="Italian Trulli"></p><p>Select the video you most likely click by selecting the number bellow.</p><p>The number follows the order of the video.</p>,1,NULL,12375
1585143349,220c1b35190ef4912520473c57d1e183,Question,44,0,control-item7,NULL,<p><img src="https://github.com/alsugiharto/experiment-design/blob/master/images/filler_7.png?raw=true" alt="Italian Trulli"></p><p>Select the video you most likely click by selecting the number bellow.</p><p>The number follows the order of the video.</p>,4,NULL,14555
1585143349,220c1b35190ef4912520473c57d1e183,Question,48,0,control-item11,NULL,<p><img src="https://github.com/alsugiharto/experiment-design/blob/master/images/filler_11.png?raw=true" alt="Italian Trulli"></p><p>Select the video you most likely click by selecting the number bellow.</p><p>The number follows the order of the video.</p>,4,NULL,10493
1585143349,220c1b35190ef4912520473c57d1e183,Question,7,0,exp_1_downright_emoji_without,1,<p><img src="https://github.com/alsugiharto/experiment-design/blob/master/images/exp_1_downright_emoji_without.png?raw=true" alt="Italian Trulli"></p><p>Select the video you most likely click by selecting the number bellow.</p><p>The number follows the order of the video.</p>,2,NULL,11781
1585143349,220c1b35190ef4912520473c57d1e183,Question,47,0,control-item10,NULL,<p><img src="https://github.com/alsugiharto/experiment-design/blob/master/images/filler_10.png?raw=true" alt="Italian Trulli"></p><p>Select the video you most likely click by selecting the number bellow.</p><p>The number follows the order of the video.</p>,4,NULL,11581
1585143349,220c1b35190ef4912520473c57d1e183,Question,33,0,exp_7_topright_emotion_without,7,<p><img src="https://github.com/alsugiharto/experiment-design/blob/master/images/exp_7_topright_emotion_without.png?raw=true" alt="Italian Trulli"></p><p>Select the video you most likely click by selecting the number bellow.</p><p>The number follows the order of the video.</p>,1,NULL,20118
1585143349,220c1b35190ef4912520473c57d1e183,Question,46,0,control-item9,NULL,<p><img src="https://github.com/alsugiharto/experiment-design/blob/master/images/filler_9.png?raw=true" alt="Italian Trulli"></p><p>Select the video you most likely click by selecting the number bellow.</p><p>The number follows the order of the video.</p>,4,NULL,9179
1585143349,220c1b35190ef4912520473c57d1e183,Question,40,0,control-item3,NULL,<p><img src="https://github.com/alsugiharto/experiment-design/blob/master/images/filler_3.png?raw=true" alt="Italian Trulli"></p><p>Select the video you most likely click by selecting the number bellow.</p><p>The number follows the order of the video.</p>,3,NULL,9246
1585143349,220c1b35190ef4912520473c57d1e183,Question,34,0,exp_8_topleft_emoji_with,8,<p><img src="https://github.com/alsugiharto/experiment-design/blob/master/images/exp_8_topleft_emoji_with.png?raw=true" alt="Italian Trulli"></p><p>Select the video you most likely click by selecting the number bellow.</p><p>The number follows the order of the video.</p>,3,NULL,4265
1585143349,220c1b35190ef4912520473c57d1e183,Question,39,0,control-item2,NULL,<p><img src="https://github.com/alsugiharto/experiment-design/blob/master/images/filler_2.png?raw=true" alt="Italian Trulli"></p><p>Select the video you most likely click by selecting the number bellow.</p><p>The number follows the order of the video.</p>,2,NULL,6300
1585143349,220c1b35190ef4912520473c57d1e183,Question,43,0,control-item6,NULL,<p><img src="https://github.com/alsugiharto/experiment-design/blob/master/images/filler_6.png?raw=true" alt="Italian Trulli"></p><p>Select the video you most likely click by selecting the number bellow.</p><p>The number follows the order of the video.</p>,3,NULL,9381
1585143349,220c1b35190ef4912520473c57d1e183,Question,12,0,exp_2_downleft_emotion_with,2,<p><img src="https://github.com/alsugiharto/experiment-design/blob/master/images/exp_2_downleft_emotion_with.png?raw=true" alt="Italian Trulli"></p><p>Select the video you most likely click by selecting the number bellow.</p><p>The number follows the order of the video.</p>,1,NULL,8133
1585143349,220c1b35190ef4912520473c57d1e183,Question,49,0,control-item12,NULL,<p><img src="https://github.com/alsugiharto/experiment-design/blob/master/images/filler_12.png?raw=true" alt="Italian Trulli"></p><p>Select the video you most likely click by selecting the number bellow.</p><p>The number follows the order of the video.</p>,1,NULL,4927
1585143349,220c1b35190ef4912520473c57d1e183,Question,23,0,exp_5_downleft_emoji_without,5,<p><img src="https://github.com/alsugiharto/experiment-design/blob/master/images/exp_5_downleft_emoji_without.png?raw=true" alt="Italian Trulli"></p><p>Select the video you most likely click by selecting the number bellow.</p><p>The number follows the order of the video.</p>,1,NULL,6738
1585143349,220c1b35190ef4912520473c57d1e183,Question,45,0,control-item8,NULL,<p><img src="https://github.com/alsugiharto/experiment-design/blob/master/images/filler_8.png?raw=true" alt="Italian Trulli"></p><p>Select the video you most likely click by selecting the number bellow.</p><p>The number follows the order of the video.</p>,4,NULL,7077
1585143349,220c1b35190ef4912520473c57d1e183,Question,17,0,exp_3_upleft_emotion_without,3,<p><img src="https://github.com/alsugiharto/experiment-design/blob/master/images/exp_3_upleft_emotion_without.png?raw=true" alt="Italian Trulli"></p><p>Select the video you most likely click by selecting the number bellow.</p><p>The number follows the order of the video.</p>,3,NULL,6267
1585143349,220c1b35190ef4912520473c57d1e183,Question,38,0,control-item1,NULL,<p><img src="https://github.com/alsugiharto/experiment-design/blob/master/images/filler_1.png?raw=true" alt="Italian Trulli"></p><p>Select the video you most likely click by selecting the number bellow.</p><p>The number follows the order of the video.</p>,2,NULL,9381
1585143349,220c1b35190ef4912520473c57d1e183,Question,41,0,control-item4,NULL,<p><img src="https://github.com/alsugiharto/experiment-design/blob/master/images/filler_4.png?raw=true" alt="Italian Trulli"></p><p>Select the video you most likely click by selecting the number bellow.</p><p>The number follows the order of the video.</p>,4,NULL,5384
1585143349,220c1b35190ef4912520473c57d1e183,Question,18,0,exp_4_upright_emoji_with,4,<p><img src="https://github.com/alsugiharto/experiment-design/blob/master/images/exp_4_upright_emoji_with.png?raw=true" alt="Italian Trulli"></p><p>Select the video you most likely click by selecting the number bellow.</p><p>The number follows the order of the video.</p>,1,NULL,3950
1585143349,220c1b35190ef4912520473c57d1e183,Question,42,0,control-item5,NULL,<p><img src="https://github.com/alsugiharto/experiment-design/blob/master/images/filler_5.png?raw=true" alt="Italian Trulli"></p><p>Select the video you most likely click by selecting the number bellow.</p><p>The number follows the order of the video.</p>,2,NULL,4116
1585143349,220c1b35190ef4912520473c57d1e183,Question,28,0,exp_6_downright_emotion_with,6,<p><img src="https://github.com/alsugiharto/experiment-design/blob/master/images/exp_6_downright_emotion_with.png?raw=true" alt="Italian Trulli"></p><p>Select the video you most likely click by selecting the number bellow.</p><p>The number follows the order of the video.</p>,1,NULL,7900
#
# Results on Wednesday March 25 2020 13:36:19 UTC.
# USER AGENT: Mozilla/5.0 (Macintosh; Intel Mac OS X 10_15_3) AppleWebKit/537.36 (KHTML, like Gecko) Chrome/80.0.3987.149 Safari/537.36
# Design number was non-random = 3
#
# Columns below this comment are as follows:
# 1. Time results were received.
# 2. MD5 hash of participant's IP address.
# 3. Controller name.
# 4. Item number.
# 5. Element number.
# 6. Type.
# 7. Group.
# 8. Field name.
# 9. Field value.
1585143379,1217d51d1d75c5b0e48439aae61b0eb3,Form,1,0,intro,NULL,consent,yes
1585143379,1217d51d1d75c5b0e48439aae61b0eb3,Form,1,0,intro,NULL,understand,yes
# Columns below this comment are as follows:
# 1. Time results were received.
# 2. MD5 hash of participant's IP address.
# 3. Controller name.
# 4. Item number.
# 5. Element number.
# 6. Type.
# 7. Group.
# 8. Question (NULL if none).
# 9. Answer.
# 10. Whether or not answer was correct (NULL if N/A).
# 11. Time taken to answer.
1585143379,1217d51d1d75c5b0e48439aae61b0eb3,Question,3,0,practice,NULL,<p>There are three practice items and this is the first one.</p><p><img src="https://github.com/alsugiharto/experiment-design/blob/master/images/example_1.png?raw=true" alt="Italian Trulli"></p><p>Select the video you most likely click by selecting the number bellow.</p><p>The number follows the order of the video.</p>,4,NULL,45264
1585143379,1217d51d1d75c5b0e48439aae61b0eb3,Question,4,0,practice,NULL,<p>There are three practice items and this is the first one.</p><p><img src="https://github.com/alsugiharto/experiment-design/blob/master/images/example_2.png?raw=true" alt="Italian Trulli"></p><p>Select the video you most likely click by selecting the number bellow.</p><p>The number follows the order of the video.</p>,1,NULL,17806
1585143379,1217d51d1d75c5b0e48439aae61b0eb3,Question,5,0,practice,NULL,<p>There are three practice items and this is the first one.</p><p><img src="https://github.com/alsugiharto/experiment-design/blob/master/images/example_3.png?raw=true" alt="Italian Trulli"></p><p>Select the video you most likely click by selecting the number bellow.</p><p>The number follows the order of the video.</p>,2,NULL,14288
1585143379,1217d51d1d75c5b0e48439aae61b0eb3,Question,42,0,control-item5,NULL,<p><img src="https://github.com/alsugiharto/experiment-design/blob/master/images/filler_5.png?raw=true" alt="Italian Trulli"></p><p>Select the video you most likely click by selecting the number bellow.</p><p>The number follows the order of the video.</p>,3,NULL,12473
1585143379,1217d51d1d75c5b0e48439aae61b0eb3,Question,45,0,control-item8,NULL,<p><img src="https://github.com/alsugiharto/experiment-design/blob/master/images/filler_8.png?raw=true" alt="Italian Trulli"></p><p>Select the video you most likely click by selecting the number bellow.</p><p>The number follows the order of the video.</p>,2,NULL,23967
1585143379,1217d51d1d75c5b0e48439aae61b0eb3,Question,15,0,exp_3_upleft_emoji_without,3,<p><img src="https://github.com/alsugiharto/experiment-design/blob/master/images/exp_3_upleft_emoji_without.png?raw=true" alt="Italian Trulli"></p><p>Select the video you most likely click by selecting the number bellow.</p><p>The number follows the order of the video.</p>,1,NULL,18104
1585143379,1217d51d1d75c5b0e48439aae61b0eb3,Question,48,0,control-item11,NULL,<p><img src="https://github.com/alsugiharto/experiment-design/blob/master/images/filler_11.png?raw=true" alt="Italian Trulli"></p><p>Select the video you most likely click by selecting the number bellow.</p><p>The number follows the order of the video.</p>,2,NULL,12961
1585143379,1217d51d1d75c5b0e48439aae61b0eb3,Question,36,0,exp_8_topleft_emotion_with,8,<p><img src="https://github.com/alsugiharto/experiment-design/blob/master/images/exp_8_topleft_emotion_with.png?raw=true" alt="Italian Trulli"></p><p>Select the video you most likely click by selecting the number bellow.</p><p>The number follows the order of the video.</p>,2,NULL,7894
1585143379,1217d51d1d75c5b0e48439aae61b0eb3,Question,38,0,control-item1,NULL,<p><img src="https://github.com/alsugiharto/experiment-design/blob/master/images/filler_1.png?raw=true" alt="Italian Trulli"></p><p>Select the video you most likely click by selecting the number bellow.</p><p>The number follows the order of the video.</p>,3,NULL,11668
1585143379,1217d51d1d75c5b0e48439aae61b0eb3,Question,47,0,control-item10,NULL,<p><img src="https://github.com/alsugiharto/experiment-design/blob/master/images/filler_10.png?raw=true" alt="Italian Trulli"></p><p>Select the video you most likely click by selecting the number bellow.</p><p>The number follows the order of the video.</p>,4,NULL,26803
1585143379,1217d51d1d75c5b0e48439aae61b0eb3,Question,26,0,exp_6_downright_emoji_with,6,<p><img src="https://github.com/alsugiharto/experiment-design/blob/master/images/exp_6_downright_emoji_with.png?raw=true" alt="Italian Trulli"></p><p>Select the video you most likely click by selecting the number bellow.</p><p>The number follows the order of the video.</p>,2,NULL,10355
1585143379,1217d51d1d75c5b0e48439aae61b0eb3,Question,43,0,control-item6,NULL,<p><img src="https://github.com/alsugiharto/experiment-design/blob/master/images/filler_6.png?raw=true" alt="Italian Trulli"></p><p>Select the video you most likely click by selecting the number bellow.</p><p>The number follows the order of the video.</p>,2,NULL,11711
1585143379,1217d51d1d75c5b0e48439aae61b0eb3,Question,40,0,control-item3,NULL,<p><img src="https://github.com/alsugiharto/experiment-design/blob/master/images/filler_3.png?raw=true" alt="Italian Trulli"></p><p>Select the video you most likely click by selecting the number bellow.</p><p>The number follows the order of the video.</p>,3,NULL,10861
1585143379,1217d51d1d75c5b0e48439aae61b0eb3,Question,25,0,exp_5_downleft_emotion_without,5,<p><img src="https://github.com/alsugiharto/experiment-design/blob/master/images/exp_5_downleft_emotion_without.png?raw=true" alt="Italian Trulli"></p><p>Select the video you most likely click by selecting the number bellow.</p><p>The number follows the order of the video.</p>,1,NULL,7647
1585143379,1217d51d1d75c5b0e48439aae61b0eb3,Question,49,0,control-item12,NULL,<p><img src="https://github.com/alsugiharto/experiment-design/blob/master/images/filler_12.png?raw=true" alt="Italian Trulli"></p><p>Select the video you most likely click by selecting the number bellow.</p><p>The number follows the order of the video.</p>,1,NULL,14340
1585143379,1217d51d1d75c5b0e48439aae61b0eb3,Question,9,0,exp_1_downright_emotion_without,1,<p><img src="https://github.com/alsugiharto/experiment-design/blob/master/images/exp_1_downright_emotion_without.png?raw=true" alt="Italian Trulli"></p><p>Select the video you most likely click by selecting the number bellow.</p><p>The number follows the order of the video.</p>,3,NULL,16717
1585143379,1217d51d1d75c5b0e48439aae61b0eb3,Question,46,0,control-item9,NULL,<p><img src="https://github.com/alsugiharto/experiment-design/blob/master/images/filler_9.png?raw=true" alt="Italian Trulli"></p><p>Select the video you most likely click by selecting the number bellow.</p><p>The number follows the order of the video.</p>,4,NULL,13205
1585143379,1217d51d1d75c5b0e48439aae61b0eb3,Question,31,0,exp_7_topright_emoji_without,7,<p><img src="https://github.com/alsugiharto/experiment-design/blob/master/images/exp_7_topright_emoji_without.png?raw=true" alt="Italian Trulli"></p><p>Select the video you most likely click by selecting the number bellow.</p><p>The number follows the order of the video.</p>,2,NULL,26015
1585143379,1217d51d1d75c5b0e48439aae61b0eb3,Question,41,0,control-item4,NULL,<p><img src="https://github.com/alsugiharto/experiment-design/blob/master/images/filler_4.png?raw=true" alt="Italian Trulli"></p><p>Select the video you most likely click by selecting the number bellow.</p><p>The number follows the order of the video.</p>,3,NULL,16422
1585143379,1217d51d1d75c5b0e48439aae61b0eb3,Question,44,0,control-item7,NULL,<p><img src="https://github.com/alsugiharto/experiment-design/blob/master/images/filler_7.png?raw=true" alt="Italian Trulli"></p><p>Select the video you most likely click by selecting the number bellow.</p><p>The number follows the order of the video.</p>,1,NULL,15598
1585143379,1217d51d1d75c5b0e48439aae61b0eb3,Question,10,0,exp_2_downleft_emoji_with,2,<p><img src="https://github.com/alsugiharto/experiment-design/blob/master/images/exp_2_downleft_emoji_with.png?raw=true" alt="Italian Trulli"></p><p>Select the video you most likely click by selecting the number bellow.</p><p>The number follows the order of the video.</p>,3,NULL,8916
1585143379,1217d51d1d75c5b0e48439aae61b0eb3,Question,39,0,control-item2,NULL,<p><img src="https://github.com/alsugiharto/experiment-design/blob/master/images/filler_2.png?raw=true" alt="Italian Trulli"></p><p>Select the video you most likely click by selecting the number bellow.</p><p>The number follows the order of the video.</p>,1,NULL,11174
1585143379,1217d51d1d75c5b0e48439aae61b0eb3,Question,20,0,exp_4_upright_emotion_with,4,<p><img src="https://github.com/alsugiharto/experiment-design/blob/master/images/exp_4_upright_emotion_with.png?raw=true" alt="Italian Trulli"></p><p>Select the video you most likely click by selecting the number bellow.</p><p>The number follows the order of the video.</p>,4,NULL,19964
#
# Results on Wednesday March 25 2020 13:39:38 UTC.
# USER AGENT: Mozilla/5.0 (Linux; Android 10; SM-G973F) AppleWebKit/537.36 (KHTML, like Gecko) Chrome/80.0.3987.149 Mobile Safari/537.36
# Design number was non-random = 5
#
# Columns below this comment are as follows:
# 1. Time results were received.
# 2. MD5 hash of participant's IP address.
# 3. Controller name.
# 4. Item number.
# 5. Element number.
# 6. Type.
# 7. Group.
# 8. Field name.
# 9. Field value.
1585143578,c589aa4cce08a69f781599cd49a36fe2,Form,1,0,intro,NULL,consent,yes
1585143578,c589aa4cce08a69f781599cd49a36fe2,Form,1,0,intro,NULL,understand,yes
# Columns below this comment are as follows:
# 1. Time results were received.
# 2. MD5 hash of participant's IP address.
# 3. Controller name.
# 4. Item number.
# 5. Element number.
# 6. Type.
# 7. Group.
# 8. Question (NULL if none).
# 9. Answer.
# 10. Whether or not answer was correct (NULL if N/A).
# 11. Time taken to answer.
1585143578,c589aa4cce08a69f781599cd49a36fe2,Question,3,0,practice,NULL,<p>There are three practice items and this is the first one.</p><p><img src="https://github.com/alsugiharto/experiment-design/blob/master/images/example_1.png?raw=true" alt="Italian Trulli"></p><p>Select the video you most likely click by selecting the number bellow.</p><p>The number follows the order of the video.</p>,2,NULL,33227
1585143578,c589aa4cce08a69f781599cd49a36fe2,Question,4,0,practice,NULL,<p>There are three practice items and this is the first one.</p><p><img src="https://github.com/alsugiharto/experiment-design/blob/master/images/example_2.png?raw=true" alt="Italian Trulli"></p><p>Select the video you most likely click by selecting the number bellow.</p><p>The number follows the order of the video.</p>,3,NULL,14763
1585143578,c589aa4cce08a69f781599cd49a36fe2,Question,5,0,practice,NULL,<p>There are three practice items and this is the first one.</p><p><img src="https://github.com/alsugiharto/experiment-design/blob/master/images/example_3.png?raw=true" alt="Italian Trulli"></p><p>Select the video you most likely click by selecting the number bellow.</p><p>The number follows the order of the video.</p>,3,NULL,17668
1585143578,c589aa4cce08a69f781599cd49a36fe2,Question,49,0,control-item12,NULL,<p><img src="https://github.com/alsugiharto/experiment-design/blob/master/images/filler_12.png?raw=true" alt="Italian Trulli"></p><p>Select the video you most likely click by selecting the number bellow.</p><p>The number follows the order of the video.</p>,3,NULL,10553
1585143578,c589aa4cce08a69f781599cd49a36fe2,Question,46,0,control-item9,NULL,<p><img src="https://github.com/alsugiharto/experiment-design/blob/master/images/filler_9.png?raw=true" alt="Italian Trulli"></p><p>Select the video you most likely click by selecting the number bellow.</p><p>The number follows the order of the video.</p>,1,NULL,9728
1585143578,c589aa4cce08a69f781599cd49a36fe2,Question,12,0,exp_2_downleft_emotion_with,2,<p><img src="https://github.com/alsugiharto/experiment-design/blob/master/images/exp_2_downleft_emotion_with.png?raw=true" alt="Italian Trulli"></p><p>Select the video you most likely click by selecting the number bellow.</p><p>The number follows the order of the video.</p>,4,NULL,13844
1585143578,c589aa4cce08a69f781599cd49a36fe2,Question,40,0,control-item3,NULL,<p><img src="https://github.com/alsugiharto/experiment-design/blob/master/images/filler_3.png?raw=true" alt="Italian Trulli"></p><p>Select the video you most likely click by selecting the number bellow.</p><p>The number follows the order of the video.</p>,2,NULL,7206
1585143578,c589aa4cce08a69f781599cd49a36fe2,Question,17,0,exp_3_upleft_emotion_without,3,<p><img src="https://github.com/alsugiharto/experiment-design/blob/master/images/exp_3_upleft_emotion_without.png?raw=true" alt="Italian Trulli"></p><p>Select the video you most likely click by selecting the number bellow.</p><p>The number follows the order of the video.</p>,4,NULL,10300
1585143578,c589aa4cce08a69f781599cd49a36fe2,Question,47,0,control-item10,NULL,<p><img src="https://github.com/alsugiharto/experiment-design/blob/master/images/filler_10.png?raw=true" alt="Italian Trulli"></p><p>Select the video you most likely click by selecting the number bellow.</p><p>The number follows the order of the video.</p>,4,NULL,8838
1585143578,c589aa4cce08a69f781599cd49a36fe2,Question,44,0,control-item7,NULL,<p><img src="https://github.com/alsugiharto/experiment-design/blob/master/images/filler_7.png?raw=true" alt="Italian Trulli"></p><p>Select the video you most likely click by selecting the number bellow.</p><p>The number follows the order of the video.</p>,4,NULL,5770
1585143578,c589aa4cce08a69f781599cd49a36fe2,Question,34,0,exp_8_topleft_emoji_with,8,<p><img src="https://github.com/alsugiharto/experiment-design/blob/master/images/exp_8_topleft_emoji_with.png?raw=true" alt="Italian Trulli"></p><p>Select the video you most likely click by selecting the number bellow.</p><p>The number follows the order of the video.</p>,1,NULL,6324
1585143578,c589aa4cce08a69f781599cd49a36fe2,Question,41,0,control-item4,NULL,<p><img src="https://github.com/alsugiharto/experiment-design/blob/master/images/filler_4.png?raw=true" alt="Italian Trulli"></p><p>Select the video you most likely click by selecting the number bellow.</p><p>The number follows the order of the video.</p>,2,NULL,6866
1585143578,c589aa4cce08a69f781599cd49a36fe2,Question,38,0,control-item1,NULL,<p><img src="https://github.com/alsugiharto/experiment-design/blob/master/images/filler_1.png?raw=true" alt="Italian Trulli"></p><p>Select the video you most likely click by selecting the number bellow.</p><p>The number follows the order of the video.</p>,4,NULL,8776
1585143578,c589aa4cce08a69f781599cd49a36fe2,Question,23,0,exp_5_downleft_emoji_without,5,<p><img src="https://github.com/alsugiharto/experiment-design/blob/master/images/exp_5_downleft_emoji_without.png?raw=true" alt="Italian Trulli"></p><p>Select the video you most likely click by selecting the number bellow.</p><p>The number follows the order of the video.</p>,1,NULL,5808
1585143578,c589aa4cce08a69f781599cd49a36fe2,Question,48,0,control-item11,NULL,<p><img src="https://github.com/alsugiharto/experiment-design/blob/master/images/filler_11.png?raw=true" alt="Italian Trulli"></p><p>Select the video you most likely click by selecting the number bellow.</p><p>The number follows the order of the video.</p>,1,NULL,10311
1585143578,c589aa4cce08a69f781599cd49a36fe2,Question,18,0,exp_4_upright_emoji_with,4,<p><img src="https://github.com/alsugiharto/experiment-design/blob/master/images/exp_4_upright_emoji_with.png?raw=true" alt="Italian Trulli"></p><p>Select the video you most likely click by selecting the number bellow.</p><p>The number follows the order of the video.</p>,2,NULL,8746
1585143578,c589aa4cce08a69f781599cd49a36fe2,Question,39,0,control-item2,NULL,<p><img src="https://github.com/alsugiharto/experiment-design/blob/master/images/filler_2.png?raw=true" alt="Italian Trulli"></p><p>Select the video you most likely click by selecting the number bellow.</p><p>The number follows the order of the video.</p>,4,NULL,5727
1585143578,c589aa4cce08a69f781599cd49a36fe2,Question,33,0,exp_7_topright_emotion_without,7,<p><img src="https://github.com/alsugiharto/experiment-design/blob/master/images/exp_7_topright_emotion_without.png?raw=true" alt="Italian Trulli"></p><p>Select the video you most likely click by selecting the number bellow.</p><p>The number follows the order of the video.</p>,3,NULL,6520
1585143578,c589aa4cce08a69f781599cd49a36fe2,Question,45,0,control-item8,NULL,<p><img src="https://github.com/alsugiharto/experiment-design/blob/master/images/filler_8.png?raw=true" alt="Italian Trulli"></p><p>Select the video you most likely click by selecting the number bellow.</p><p>The number follows the order of the video.</p>,1,NULL,6512
1585143578,c589aa4cce08a69f781599cd49a36fe2,Question,43,0,control-item6,NULL,<p><img src="https://github.com/alsugiharto/experiment-design/blob/master/images/filler_6.png?raw=true" alt="Italian Trulli"></p><p>Select the video you most likely click by selecting the number bellow.</p><p>The number follows the order of the video.</p>,4,NULL,3114
1585143578,c589aa4cce08a69f781599cd49a36fe2,Question,7,0,exp_1_downright_emoji_without,1,<p><img src="https://github.com/alsugiharto/experiment-design/blob/master/images/exp_1_downright_emoji_without.png?raw=true" alt="Italian Trulli"></p><p>Select the video you most likely click by selecting the number bellow.</p><p>The number follows the order of the video.</p>,1,NULL,4692
1585143578,c589aa4cce08a69f781599cd49a36fe2,Question,42,0,control-item5,NULL,<p><img src="https://github.com/alsugiharto/experiment-design/blob/master/images/filler_5.png?raw=true" alt="Italian Trulli"></p><p>Select the video you most likely click by selecting the number bellow.</p><p>The number follows the order of the video.</p>,2,NULL,8567
1585143578,c589aa4cce08a69f781599cd49a36fe2,Question,28,0,exp_6_downright_emotion_with,6,<p><img src="https://github.com/alsugiharto/experiment-design/blob/master/images/exp_6_downright_emotion_with.png?raw=true" alt="Italian Trulli"></p><p>Select the video you most likely click by selecting the number bellow.</p><p>The number follows the order of the video.</p>,3,NULL,4253
#
# Results on Wednesday March 25 2020 13:55:16 UTC.
# USER AGENT: Mozilla/5.0 (Macintosh; Intel Mac OS X 10_15_3) AppleWebKit/537.36 (KHTML, like Gecko) Chrome/80.0.3987.149 Safari/537.36
# Design number was non-random = 1
#
# Columns below this comment are as follows:
# 1. Time results were received.
# 2. MD5 hash of participant's IP address.
# 3. Controller name.
# 4. Item number.
# 5. Element number.
# 6. Type.
# 7. Group.
# 8. Field name.
# 9. Field value.
1585144516,221a64dcacb04a1d2a9220ce1cdb8bd6,Form,1,0,intro,NULL,consent,yes
1585144516,221a64dcacb04a1d2a9220ce1cdb8bd6,Form,1,0,intro,NULL,understand,yes
# Columns below this comment are as follows:
# 1. Time results were received.
# 2. MD5 hash of participant's IP address.
# 3. Controller name.
# 4. Item number.
# 5. Element number.
# 6. Type.
# 7. Group.
# 8. Question (NULL if none).
# 9. Answer.
# 10. Whether or not answer was correct (NULL if N/A).
# 11. Time taken to answer.
1585144516,221a64dcacb04a1d2a9220ce1cdb8bd6,Question,3,0,practice,NULL,<p>There are three practice items and this is the first one.</p><p><img src="https://github.com/alsugiharto/experiment-design/blob/master/images/example_1.png?raw=true" alt="Italian Trulli"></p><p>Select the video you most likely click by selecting the number bellow.</p><p>The number follows the order of the video.</p>,1,NULL,17797
1585144516,221a64dcacb04a1d2a9220ce1cdb8bd6,Question,4,0,practice,NULL,<p>There are three practice items and this is the first one.</p><p><img src="https://github.com/alsugiharto/experiment-design/blob/master/images/example_2.png?raw=true" alt="Italian Trulli"></p><p>Select the video you most likely click by selecting the number bellow.</p><p>The number follows the order of the video.</p>,2,NULL,19259
1585144516,221a64dcacb04a1d2a9220ce1cdb8bd6,Question,5,0,practice,NULL,<p>There are three practice items and this is the first one.</p><p><img src="https://github.com/alsugiharto/experiment-design/blob/master/images/example_3.png?raw=true" alt="Italian Trulli"></p><p>Select the video you most likely click by selecting the number bellow.</p><p>The number follows the order of the video.</p>,4,NULL,20820
1585144516,221a64dcacb04a1d2a9220ce1cdb8bd6,Question,39,0,control-item2,NULL,<p><img src="https://github.com/alsugiharto/experiment-design/blob/master/images/filler_2.png?raw=true" alt="Italian Trulli"></p><p>Select the video you most likely click by selecting the number bellow.</p><p>The number follows the order of the video.</p>,2,NULL,11808
1585144516,221a64dcacb04a1d2a9220ce1cdb8bd6,Question,45,0,control-item8,NULL,<p><img src="https://github.com/alsugiharto/experiment-design/blob/master/images/filler_8.png?raw=true" alt="Italian Trulli"></p><p>Select the video you most likely click by selecting the number bellow.</p><p>The number follows the order of the video.</p>,2,NULL,21244
1585144516,221a64dcacb04a1d2a9220ce1cdb8bd6,Question,7,0,exp_1_downright_emoji_without,1,<p><img src="https://github.com/alsugiharto/experiment-design/blob/master/images/exp_1_downright_emoji_without.png?raw=true" alt="Italian Trulli"></p><p>Select the video you most likely click by selecting the number bellow.</p><p>The number follows the order of the video.</p>,3,NULL,11719
1585144516,221a64dcacb04a1d2a9220ce1cdb8bd6,Question,42,0,control-item5,NULL,<p><img src="https://github.com/alsugiharto/experiment-design/blob/master/images/filler_5.png?raw=true" alt="Italian Trulli"></p><p>Select the video you most likely click by selecting the number bellow.</p><p>The number follows the order of the video.</p>,2,NULL,7625
1585144516,221a64dcacb04a1d2a9220ce1cdb8bd6,Question,23,0,exp_5_downleft_emoji_without,5,<p><img src="https://github.com/alsugiharto/experiment-design/blob/master/images/exp_5_downleft_emoji_without.png?raw=true" alt="Italian Trulli"></p><p>Select the video you most likely click by selecting the number bellow.</p><p>The number follows the order of the video.</p>,1,NULL,6566
1585144516,221a64dcacb04a1d2a9220ce1cdb8bd6,Question,38,0,control-item1,NULL,<p><img src="https://github.com/alsugiharto/experiment-design/blob/master/images/filler_1.png?raw=true" alt="Italian Trulli"></p><p>Select the video you most likely click by selecting the number bellow.</p><p>The number follows the order of the video.</p>,3,NULL,13236
1585144516,221a64dcacb04a1d2a9220ce1cdb8bd6,Question,40,0,control-item3,NULL,<p><img src="https://github.com/alsugiharto/experiment-design/blob/master/images/filler_3.png?raw=true" alt="Italian Trulli"></p><p>Select the video you most likely click by selecting the number bellow.</p><p>The number follows the order of the video.</p>,3,NULL,12172
1585144516,221a64dcacb04a1d2a9220ce1cdb8bd6,Question,34,0,exp_8_topleft_emoji_with,8,<p><img src="https://github.com/alsugiharto/experiment-design/blob/master/images/exp_8_topleft_emoji_with.png?raw=true" alt="Italian Trulli"></p><p>Select the video you most likely click by selecting the number bellow.</p><p>The number follows the order of the video.</p>,2,NULL,8781
1585144516,221a64dcacb04a1d2a9220ce1cdb8bd6,Question,48,0,control-item11,NULL,<p><img src="https://github.com/alsugiharto/experiment-design/blob/master/images/filler_11.png?raw=true" alt="Italian Trulli"></p><p>Select the video you most likely click by selecting the number bellow.</p><p>The number follows the order of the video.</p>,2,NULL,15853
1585144516,221a64dcacb04a1d2a9220ce1cdb8bd6,Question,41,0,control-item4,NULL,<p><img src="https://github.com/alsugiharto/experiment-design/blob/master/images/filler_4.png?raw=true" alt="Italian Trulli"></p><p>Select the video you most likely click by selecting the number bellow.</p><p>The number follows the order of the video.</p>,3,NULL,43081
1585144516,221a64dcacb04a1d2a9220ce1cdb8bd6,Question,18,0,exp_4_upright_emoji_with,4,<p><img src="https://github.com/alsugiharto/experiment-design/blob/master/images/exp_4_upright_emoji_with.png?raw=true" alt="Italian Trulli"></p><p>Select the video you most likely click by selecting the number bellow.</p><p>The number follows the order of the video.</p>,1,NULL,6564
1585144516,221a64dcacb04a1d2a9220ce1cdb8bd6,Question,49,0,control-item12,NULL,<p><img src="https://github.com/alsugiharto/experiment-design/blob/master/images/filler_12.png?raw=true" alt="Italian Trulli"></p><p>Select the video you most likely click by selecting the number bellow.</p><p>The number follows the order of the video.</p>,1,NULL,8296
1585144516,221a64dcacb04a1d2a9220ce1cdb8bd6,Question,33,0,exp_7_topright_emotion_without,7,<p><img src="https://github.com/alsugiharto/experiment-design/blob/master/images/exp_7_topright_emotion_without.png?raw=true" alt="Italian Trulli"></p><p>Select the video you most likely click by selecting the number bellow.</p><p>The number follows the order of the video.</p>,1,NULL,8207
1585144516,221a64dcacb04a1d2a9220ce1cdb8bd6,Question,47,0,control-item10,NULL,<p><img src="https://github.com/alsugiharto/experiment-design/blob/master/images/filler_10.png?raw=true" alt="Italian Trulli"></p><p>Select the video you most likely click by selecting the number bellow.</p><p>The number follows the order of the video.</p>,2,NULL,8492
1585144516,221a64dcacb04a1d2a9220ce1cdb8bd6,Question,28,0,exp_6_downright_emotion_with,6,<p><img src="https://github.com/alsugiharto/experiment-design/blob/master/images/exp_6_downright_emotion_with.png?raw=true" alt="Italian Trulli"></p><p>Select the video you most likely click by selecting the number bellow.</p><p>The number follows the order of the video.</p>,1,NULL,10410
1585144516,221a64dcacb04a1d2a9220ce1cdb8bd6,Question,43,0,control-item6,NULL,<p><img src="https://github.com/alsugiharto/experiment-design/blob/master/images/filler_6.png?raw=true" alt="Italian Trulli"></p><p>Select the video you most likely click by selecting the number bellow.</p><p>The number follows the order of the video.</p>,3,NULL,5678
1585144516,221a64dcacb04a1d2a9220ce1cdb8bd6,Question,44,0,control-item7,NULL,<p><img src="https://github.com/alsugiharto/experiment-design/blob/master/images/filler_7.png?raw=true" alt="Italian Trulli"></p><p>Select the video you most likely click by selecting the number bellow.</p><p>The number follows the order of the video.</p>,1,NULL,7295
1585144516,221a64dcacb04a1d2a9220ce1cdb8bd6,Question,17,0,exp_3_upleft_emotion_without,3,<p><img src="https://github.com/alsugiharto/experiment-design/blob/master/images/exp_3_upleft_emotion_without.png?raw=true" alt="Italian Trulli"></p><p>Select the video you most likely click by selecting the number bellow.</p><p>The number follows the order of the video.</p>,3,NULL,10575
1585144516,221a64dcacb04a1d2a9220ce1cdb8bd6,Question,46,0,control-item9,NULL,<p><img src="https://github.com/alsugiharto/experiment-design/blob/master/images/filler_9.png?raw=true" alt="Italian Trulli"></p><p>Select the video you most likely click by selecting the number bellow.</p><p>The number follows the order of the video.</p>,1,NULL,9059
1585144516,221a64dcacb04a1d2a9220ce1cdb8bd6,Question,12,0,exp_2_downleft_emotion_with,2,<p><img src="https://github.com/alsugiharto/experiment-design/blob/master/images/exp_2_downleft_emotion_with.png?raw=true" alt="Italian Trulli"></p><p>Select the video you most likely click by selecting the number bellow.</p><p>The number follows the order of the video.</p>,3,NULL,9413
#
# Results on Wednesday March 25 2020 14:08:23 UTC.
# USER AGENT: Mozilla/5.0 (iPhone; CPU iPhone OS 13_3_1 like Mac OS X) AppleWebKit/605.1.15 (KHTML, like Gecko) Version/13.0.5 Mobile/15E148 Safari/604.1
# Design number was non-random = 9
#
# Columns below this comment are as follows:
# 1. Time results were received.
# 2. MD5 hash of participant's IP address.
# 3. Controller name.
# 4. Item number.
# 5. Element number.
# 6. Type.
# 7. Group.
# 8. Field name.
# 9. Field value.
1585145304,6a890cf48f9f1745e1b37d5383696bd3,Form,1,0,intro,NULL,consent,yes
1585145304,6a890cf48f9f1745e1b37d5383696bd3,Form,1,0,intro,NULL,understand,yes
# Columns below this comment are as follows:
# 1. Time results were received.
# 2. MD5 hash of participant's IP address.
# 3. Controller name.
# 4. Item number.
# 5. Element number.
# 6. Type.
# 7. Group.
# 8. Question (NULL if none).
# 9. Answer.
# 10. Whether or not answer was correct (NULL if N/A).
# 11. Time taken to answer.
1585145304,6a890cf48f9f1745e1b37d5383696bd3,Question,3,0,practice,NULL,<p>There are three practice items and this is the first one.</p><p><img src="https://github.com/alsugiharto/experiment-design/blob/master/images/example_1.png?raw=true" alt="Italian Trulli"></p><p>Select the video you most likely click by selecting the number bellow.</p><p>The number follows the order of the video.</p>,1,NULL,20649
1585145304,6a890cf48f9f1745e1b37d5383696bd3,Question,4,0,practice,NULL,<p>There are three practice items and this is the first one.</p><p><img src="https://github.com/alsugiharto/experiment-design/blob/master/images/example_2.png?raw=true" alt="Italian Trulli"></p><p>Select the video you most likely click by selecting the number bellow.</p><p>The number follows the order of the video.</p>,1,NULL,17590
1585145304,6a890cf48f9f1745e1b37d5383696bd3,Question,5,0,practice,NULL,<p>There are three practice items and this is the first one.</p><p><img src="https://github.com/alsugiharto/experiment-design/blob/master/images/example_3.png?raw=true" alt="Italian Trulli"></p><p>Select the video you most likely click by selecting the number bellow.</p><p>The number follows the order of the video.</p>,4,NULL,40418
1585145304,6a890cf48f9f1745e1b37d5383696bd3,Question,46,0,control-item9,NULL,<p><img src="https://github.com/alsugiharto/experiment-design/blob/master/images/filler_9.png?raw=true" alt="Italian Trulli"></p><p>Select the video you most likely click by selecting the number bellow.</p><p>The number follows the order of the video.</p>,1,NULL,25973
1585145304,6a890cf48f9f1745e1b37d5383696bd3,Question,49,0,control-item12,NULL,<p><img src="https://github.com/alsugiharto/experiment-design/blob/master/images/filler_12.png?raw=true" alt="Italian Trulli"></p><p>Select the video you most likely click by selecting the number bellow.</p><p>The number follows the order of the video.</p>,2,NULL,39137
1585145304,6a890cf48f9f1745e1b37d5383696bd3,Question,7,0,exp_1_downright_emoji_without,1,<p><img src="https://github.com/alsugiharto/experiment-design/blob/master/images/exp_1_downright_emoji_without.png?raw=true" alt="Italian Trulli"></p><p>Select the video you most likely click by selecting the number bellow.</p><p>The number follows the order of the video.</p>,2,NULL,12614
1585145304,6a890cf48f9f1745e1b37d5383696bd3,Question,44,0,control-item7,NULL,<p><img src="https://github.com/alsugiharto/experiment-design/blob/master/images/filler_7.png?raw=true" alt="Italian Trulli"></p><p>Select the video you most likely click by selecting the number bellow.</p><p>The number follows the order of the video.</p>,1,NULL,13025
1585145304,6a890cf48f9f1745e1b37d5383696bd3,Question,12,0,exp_2_downleft_emotion_with,2,<p><img src="https://github.com/alsugiharto/experiment-design/blob/master/images/exp_2_downleft_emotion_with.png?raw=true" alt="Italian Trulli"></p><p>Select the video you most likely click by selecting the number bellow.</p><p>The number follows the order of the video.</p>,2,NULL,12032
1585145304,6a890cf48f9f1745e1b37d5383696bd3,Question,39,0,control-item2,NULL,<p><img src="https://github.com/alsugiharto/experiment-design/blob/master/images/filler_2.png?raw=true" alt="Italian Trulli"></p><p>Select the video you most likely click by selecting the number bellow.</p><p>The number follows the order of the video.</p>,2,NULL,9670
1585145304,6a890cf48f9f1745e1b37d5383696bd3,Question,43,0,control-item6,NULL,<p><img src="https://github.com/alsugiharto/experiment-design/blob/master/images/filler_6.png?raw=true" alt="Italian Trulli"></p><p>Select the video you most likely click by selecting the number bellow.</p><p>The number follows the order of the video.</p>,3,NULL,60910
1585145304,6a890cf48f9f1745e1b37d5383696bd3,Question,33,0,exp_7_topright_emotion_without,7,<p><img src="https://github.com/alsugiharto/experiment-design/blob/master/images/exp_7_topright_emotion_without.png?raw=true" alt="Italian Trulli"></p><p>Select the video you most likely click by selecting the number bellow.</p><p>The number follows the order of the video.</p>,1,NULL,11616
1585145304,6a890cf48f9f1745e1b37d5383696bd3,Question,47,0,control-item10,NULL,<p><img src="https://github.com/alsugiharto/experiment-design/blob/master/images/filler_10.png?raw=true" alt="Italian Trulli"></p><p>Select the video you most likely click by selecting the number bellow.</p><p>The number follows the order of the video.</p>,3,NULL,14952
1585145304,6a890cf48f9f1745e1b37d5383696bd3,Question,40,0,control-item3,NULL,<p><img src="https://github.com/alsugiharto/experiment-design/blob/master/images/filler_3.png?raw=true" alt="Italian Trulli"></p><p>Select the video you most likely click by selecting the number bellow.</p><p>The number follows the order of the video.</p>,2,NULL,28499
1585145304,6a890cf48f9f1745e1b37d5383696bd3,Question,18,0,exp_4_upright_emoji_with,4,<p><img src="https://github.com/alsugiharto/experiment-design/blob/master/images/exp_4_upright_emoji_with.png?raw=true" alt="Italian Trulli"></p><p>Select the video you most likely click by selecting the number bellow.</p><p>The number follows the order of the video.</p>,3,NULL,58268
1585145304,6a890cf48f9f1745e1b37d5383696bd3,Question,42,0,control-item5,NULL,<p><img src="https://github.com/alsugiharto/experiment-design/blob/master/images/filler_5.png?raw=true" alt="Italian Trulli"></p><p>Select the video you most likely click by selecting the number bellow.</p><p>The number follows the order of the video.</p>,4,NULL,14809
1585145304,6a890cf48f9f1745e1b37d5383696bd3,Question,28,0,exp_6_downright_emotion_with,6,<p><img src="https://github.com/alsugiharto/experiment-design/blob/master/images/exp_6_downright_emotion_with.png?raw=true" alt="Italian Trulli"></p><p>Select the video you most likely click by selecting the number bellow.</p><p>The number follows the order of the video.</p>,1,NULL,13711
1585145304,6a890cf48f9f1745e1b37d5383696bd3,Question,38,0,control-item1,NULL,<p><img src="https://github.com/alsugiharto/experiment-design/blob/master/images/filler_1.png?raw=true" alt="Italian Trulli"></p><p>Select the video you most likely click by selecting the number bellow.</p><p>The number follows the order of the video.</p>,1,NULL,14218
1585145304,6a890cf48f9f1745e1b37d5383696bd3,Question,23,0,exp_5_downleft_emoji_without,5,<p><img src="https://github.com/alsugiharto/experiment-design/blob/master/images/exp_5_downleft_emoji_without.png?raw=true" alt="Italian Trulli"></p><p>Select the video you most likely click by selecting the number bellow.</p><p>The number follows the order of the video.</p>,1,NULL,111311
1585145304,6a890cf48f9f1745e1b37d5383696bd3,Question,41,0,control-item4,NULL,<p><img src="https://github.com/alsugiharto/experiment-design/blob/master/images/filler_4.png?raw=true" alt="Italian Trulli"></p><p>Select the video you most likely click by selecting the number bellow.</p><p>The number follows the order of the video.</p>,4,NULL,7714
1585145304,6a890cf48f9f1745e1b37d5383696bd3,Question,48,0,control-item11,NULL,<p><img src="https://github.com/alsugiharto/experiment-design/blob/master/images/filler_11.png?raw=true" alt="Italian Trulli"></p><p>Select the video you most likely click by selecting the number bellow.</p><p>The number follows the order of the video.</p>,1,NULL,10623
1585145304,6a890cf48f9f1745e1b37d5383696bd3,Question,34,0,exp_8_topleft_emoji_with,8,<p><img src="https://github.com/alsugiharto/experiment-design/blob/master/images/exp_8_topleft_emoji_with.png?raw=true" alt="Italian Trulli"></p><p>Select the video you most likely click by selecting the number bellow.</p><p>The number follows the order of the video.</p>,1,NULL,12040
1585145304,6a890cf48f9f1745e1b37d5383696bd3,Question,45,0,control-item8,NULL,<p><img src="https://github.com/alsugiharto/experiment-design/blob/master/images/filler_8.png?raw=true" alt="Italian Trulli"></p><p>Select the video you most likely click by selecting the number bellow.</p><p>The number follows the order of the video.</p>,2,NULL,19293
1585145304,6a890cf48f9f1745e1b37d5383696bd3,Question,17,0,exp_3_upleft_emotion_without,3,<p><img src="https://github.com/alsugiharto/experiment-design/blob/master/images/exp_3_upleft_emotion_without.png?raw=true" alt="Italian Trulli"></p><p>Select the video you most likely click by selecting the number bellow.</p><p>The number follows the order of the video.</p>,1,NULL,44325
#
# Results on Wednesday March 25 2020 14:16:21 UTC.
# USER AGENT: Mozilla/5.0 (iPhone; CPU iPhone OS 13_3_1 like Mac OS X) AppleWebKit/605.1.15 (KHTML, like Gecko) Version/13.0.5 Mobile/15E148 Safari/604.1
# Design number was non-random = 10
#
# Columns below this comment are as follows:
# 1. Time results were received.
# 2. MD5 hash of participant's IP address.
# 3. Controller name.
# 4. Item number.
# 5. Element number.
# 6. Type.
# 7. Group.
# 8. Field name.
# 9. Field value.
1585145782,6fdc115d87248905992b6bb149135cf2,Form,1,0,intro,NULL,consent,yes
1585145782,6fdc115d87248905992b6bb149135cf2,Form,1,0,intro,NULL,understand,yes
# Columns below this comment are as follows:
# 1. Time results were received.
# 2. MD5 hash of participant's IP address.
# 3. Controller name.
# 4. Item number.
# 5. Element number.
# 6. Type.
# 7. Group.
# 8. Question (NULL if none).
# 9. Answer.
# 10. Whether or not answer was correct (NULL if N/A).
# 11. Time taken to answer.
1585145782,6fdc115d87248905992b6bb149135cf2,Question,3,0,practice,NULL,<p>There are three practice items and this is the first one.</p><p><img src="https://github.com/alsugiharto/experiment-design/blob/master/images/example_1.png?raw=true" alt="Italian Trulli"></p><p>Select the video you most likely click by selecting the number bellow.</p><p>The number follows the order of the video.</p>,4,NULL,12734
1585145782,6fdc115d87248905992b6bb149135cf2,Question,4,0,practice,NULL,<p>There are three practice items and this is the first one.</p><p><img src="https://github.com/alsugiharto/experiment-design/blob/master/images/example_2.png?raw=true" alt="Italian Trulli"></p><p>Select the video you most likely click by selecting the number bellow.</p><p>The number follows the order of the video.</p>,1,NULL,14731
1585145782,6fdc115d87248905992b6bb149135cf2,Question,5,0,practice,NULL,<p>There are three practice items and this is the first one.</p><p><img src="https://github.com/alsugiharto/experiment-design/blob/master/images/example_3.png?raw=true" alt="Italian Trulli"></p><p>Select the video you most likely click by selecting the number bellow.</p><p>The number follows the order of the video.</p>,1,NULL,11953
1585145782,6fdc115d87248905992b6bb149135cf2,Question,46,0,control-item9,NULL,<p><img src="https://github.com/alsugiharto/experiment-design/blob/master/images/filler_9.png?raw=true" alt="Italian Trulli"></p><p>Select the video you most likely click by selecting the number bellow.</p><p>The number follows the order of the video.</p>,2,NULL,17983
1585145782,6fdc115d87248905992b6bb149135cf2,Question,13,0,exp_2_downleft_emotion_without,2,<p><img src="https://github.com/alsugiharto/experiment-design/blob/master/images/exp_2_downleft_emotion_without.png?raw=true" alt="Italian Trulli"></p><p>Select the video you most likely click by selecting the number bellow.</p><p>The number follows the order of the video.</p>,4,NULL,11402
1585145782,6fdc115d87248905992b6bb149135cf2,Question,47,0,control-item10,NULL,<p><img src="https://github.com/alsugiharto/experiment-design/blob/master/images/filler_10.png?raw=true" alt="Italian Trulli"></p><p>Select the video you most likely click by selecting the number bellow.</p><p>The number follows the order of the video.</p>,2,NULL,10426
1585145782,6fdc115d87248905992b6bb149135cf2,Question,30,0,exp_7_topright_emoji_with,7,<p><img src="https://github.com/alsugiharto/experiment-design/blob/master/images/exp_7_topright_emoji_with.png?raw=true" alt="Italian Trulli"></p><p>Select the video you most likely click by selecting the number bellow.</p><p>The number follows the order of the video.</p>,3,NULL,6724
1585145782,6fdc115d87248905992b6bb149135cf2,Question,41,0,control-item4,NULL,<p><img src="https://github.com/alsugiharto/experiment-design/blob/master/images/filler_4.png?raw=true" alt="Italian Trulli"></p><p>Select the video you most likely click by selecting the number bellow.</p><p>The number follows the order of the video.</p>,4,NULL,9389
1585145782,6fdc115d87248905992b6bb149135cf2,Question,45,0,control-item8,NULL,<p><img src="https://github.com/alsugiharto/experiment-design/blob/master/images/filler_8.png?raw=true" alt="Italian Trulli"></p><p>Select the video you most likely click by selecting the number bellow.</p><p>The number follows the order of the video.</p>,4,NULL,11506
1585145782,6fdc115d87248905992b6bb149135cf2,Question,35,0,exp_8_topleft_emoji_without,8,<p><img src="https://github.com/alsugiharto/experiment-design/blob/master/images/exp_8_topleft_emoji_without.png?raw=true" alt="Italian Trulli"></p><p>Select the video you most likely click by selecting the number bellow.</p><p>The number follows the order of the video.</p>,1,NULL,12631
1585145782,6fdc115d87248905992b6bb149135cf2,Question,38,0,control-item1,NULL,<p><img src="https://github.com/alsugiharto/experiment-design/blob/master/images/filler_1.png?raw=true" alt="Italian Trulli"></p><p>Select the video you most likely click by selecting the number bellow.</p><p>The number follows the order of the video.</p>,3,NULL,6877
1585145782,6fdc115d87248905992b6bb149135cf2,Question,40,0,control-item3,NULL,<p><img src="https://github.com/alsugiharto/experiment-design/blob/master/images/filler_3.png?raw=true" alt="Italian Trulli"></p><p>Select the video you most likely click by selecting the number bellow.</p><p>The number follows the order of the video.</p>,2,NULL,7763
1585145782,6fdc115d87248905992b6bb149135cf2,Question,24,0,exp_5_downleft_emotion_with,5,<p><img src="https://github.com/alsugiharto/experiment-design/blob/master/images/exp_5_downleft_emotion_with.png?raw=true" alt="Italian Trulli"></p><p>Select the video you most likely click by selecting the number bellow.</p><p>The number follows the order of the video.</p>,3,NULL,7007
1585145782,6fdc115d87248905992b6bb149135cf2,Question,44,0,control-item7,NULL,<p><img src="https://github.com/alsugiharto/experiment-design/blob/master/images/filler_7.png?raw=true" alt="Italian Trulli"></p><p>Select the video you most likely click by selecting the number bellow.</p><p>The number follows the order of the video.</p>,2,NULL,8936
1585145782,6fdc115d87248905992b6bb149135cf2,Question,19,0,exp_4_upright_emoji_without,4,<p><img src="https://github.com/alsugiharto/experiment-design/blob/master/images/exp_4_upright_emoji_without.png?raw=true" alt="Italian Trulli"></p><p>Select the video you most likely click by selecting the number bellow.</p><p>The number follows the order of the video.</p>,4,NULL,8910
